rt,trial_type,trial_index,likert_eval_number,time_elapsed,random_id,bystander_condition,condition,participant_id,age,gender,inquiry,stimulus,response,item_type,question_order,block_type,file_name,likert_question,likert_response,participant_age,what_experiment_about,participant_is_group_member,question_agent,actor_condition
4684,survey-likert,6,1,15024,p06tycu8a34,slow,moral,whale,21,male,NA,NA,"{""j_manipulation_check"":4,""n_manipulation_check"":2}",moral_stimulus_1,"[0,1]",manipulation_check,/Users/martincz/GitHub/COGS119/group_wi26_moral_character/analysis/../data/raw_data/p06tycu8a34_1772524616873.csv,j_manipulation_check,4,21,affect of speed in perception of morality,TRUE,j,fast
4684,survey-likert,6,2,15024,p06tycu8a34,slow,moral,whale,21,male,NA,NA,"{""j_manipulation_check"":4,""n_manipulation_check"":2}",moral_stimulus_1,"[0,1]",manipulation_check,/Users/martincz/GitHub/COGS119/group_wi26_moral_character/analysis/../data/raw_data/p06tycu8a34_1772524616873.csv,n_manipulation_check,2,21,affect of speed in perception of morality,TRUE,n,slow
9190,survey-likert,7,3,24216,p06tycu8a34,slow,moral,whale,21,male,NA,NA,"{""n_principles_eval"":5,""j_principles_eval"":4}",moral_stimulus_1,"[1,0]",principles,/Users/martincz/GitHub/COGS119/group_wi26_moral_character/analysis/../data/raw_data/p06tycu8a34_1772524616873.csv,n_principles_eval,5,21,affect of speed in perception of morality,TRUE,n,slow
9190,survey-likert,7,4,24216,p06tycu8a34,slow,moral,whale,21,male,NA,NA,"{""n_principles_eval"":5,""j_principles_eval"":4}",moral_stimulus_1,"[1,0]",principles,/Users/martincz/GitHub/COGS119/group_wi26_moral_character/analysis/../data/raw_data/p06tycu8a34_1772524616873.csv,j_principles_eval,4,21,affect of speed in perception of morality,TRUE,j,fast
4190,survey-likert,8,5,28407,p06tycu8a34,slow,moral,whale,21,male,NA,NA,"{""n_standards_eval"":1,""j_standards_eval"":2}",moral_stimulus_1,"[1,0]",standards,/Users/martincz/GitHub/COGS119/group_wi26_moral_character/analysis/../data/raw_data/p06tycu8a34_1772524616873.csv,n_standards_eval,1,21,affect of speed in perception of morality,TRUE,n,slow
4190,survey-likert,8,6,28407,p06tycu8a34,slow,moral,whale,21,male,NA,NA,"{""n_standards_eval"":1,""j_standards_eval"":2}",moral_stimulus_1,"[1,0]",standards,/Users/martincz/GitHub/COGS119/group_wi26_moral_character/analysis/../data/raw_data/p06tycu8a34_1772524616873.csv,j_standards_eval,2,21,affect of speed in perception of morality,TRUE,j,fast
4325,survey-likert,9,7,32733,p06tycu8a34,slow,moral,whale,21,male,NA,NA,"{""n_deepness_eval"":5,""j_deepness_eval"":4}",moral_stimulus_1,"[1,0]",depth,/Users/martincz/GitHub/COGS119/group_wi26_moral_character/analysis/../data/raw_data/p06tycu8a34_1772524616873.csv,n_deepness_eval,5,21,affect of speed in perception of morality,TRUE,n,slow
4325,survey-likert,9,8,32733,p06tycu8a34,slow,moral,whale,21,male,NA,NA,"{""n_deepness_eval"":5,""j_deepness_eval"":4}",moral_stimulus_1,"[1,0]",depth,/Users/martincz/GitHub/COGS119/group_wi26_moral_character/analysis/../data/raw_data/p06tycu8a34_1772524616873.csv,j_deepness_eval,4,21,affect of speed in perception of morality,TRUE,j,fast
13973,survey-likert,10,9,46707,p06tycu8a34,slow,moral,whale,21,male,NA,NA,"{""j_cert_conflicted_RS"":1,""n_cert_conflicted_RS"":5,""j_cert_reservations_RS"":1,""n_cert_reservations_RS"":5}",moral_stimulus_1,"[0,1,2,3]",certainty,/Users/martincz/GitHub/COGS119/group_wi26_moral_character/analysis/../data/raw_data/p06tycu8a34_1772524616873.csv,j_cert_conflicted_RS,1,21,affect of speed in perception of morality,TRUE,j,fast
13973,survey-likert,10,10,46707,p06tycu8a34,slow,moral,whale,21,male,NA,NA,"{""j_cert_conflicted_RS"":1,""n_cert_conflicted_RS"":5,""j_cert_reservations_RS"":1,""n_cert_reservations_RS"":5}",moral_stimulus_1,"[0,1,2,3]",certainty,/Users/martincz/GitHub/COGS119/group_wi26_moral_character/analysis/../data/raw_data/p06tycu8a34_1772524616873.csv,n_cert_conflicted_RS,5,21,affect of speed in perception of morality,TRUE,n,slow
13973,survey-likert,10,11,46707,p06tycu8a34,slow,moral,whale,21,male,NA,NA,"{""j_cert_conflicted_RS"":1,""n_cert_conflicted_RS"":5,""j_cert_reservations_RS"":1,""n_cert_reservations_RS"":5}",moral_stimulus_1,"[0,1,2,3]",certainty,/Users/martincz/GitHub/COGS119/group_wi26_moral_character/analysis/../data/raw_data/p06tycu8a34_1772524616873.csv,j_cert_reservations_RS,1,21,affect of speed in perception of morality,TRUE,j,fast
13973,survey-likert,10,12,46707,p06tycu8a34,slow,moral,whale,21,male,NA,NA,"{""j_cert_conflicted_RS"":1,""n_cert_conflicted_RS"":5,""j_cert_reservations_RS"":1,""n_cert_reservations_RS"":5}",moral_stimulus_1,"[0,1,2,3]",certainty,/Users/martincz/GitHub/COGS119/group_wi26_moral_character/analysis/../data/raw_data/p06tycu8a34_1772524616873.csv,n_cert_reservations_RS,5,21,affect of speed in perception of morality,TRUE,n,slow
13149,survey-likert,11,13,59857,p06tycu8a34,slow,moral,whale,21,male,NA,NA,"{""j_cert_quite_certain"":5,""n_cert_quite_certain"":1,""j_cert_far_from_alternative"":5,""n_cert_far_from_alternative"":1}",moral_stimulus_1,"[0,1,2,3]",certainty,/Users/martincz/GitHub/COGS119/group_wi26_moral_character/analysis/../data/raw_data/p06tycu8a34_1772524616873.csv,j_cert_quite_certain,5,21,affect of speed in perception of morality,TRUE,j,fast
13149,survey-likert,11,14,59857,p06tycu8a34,slow,moral,whale,21,male,NA,NA,"{""j_cert_quite_certain"":5,""n_cert_quite_certain"":1,""j_cert_far_from_alternative"":5,""n_cert_far_from_alternative"":1}",moral_stimulus_1,"[0,1,2,3]",certainty,/Users/martincz/GitHub/COGS119/group_wi26_moral_character/analysis/../data/raw_data/p06tycu8a34_1772524616873.csv,n_cert_quite_certain,1,21,affect of speed in perception of morality,TRUE,n,slow
13149,survey-likert,11,15,59857,p06tycu8a34,slow,moral,whale,21,male,NA,NA,"{""j_cert_quite_certain"":5,""n_cert_quite_certain"":1,""j_cert_far_from_alternative"":5,""n_cert_far_from_alternative"":1}",moral_stimulus_1,"[0,1,2,3]",certainty,/Users/martincz/GitHub/COGS119/group_wi26_moral_character/analysis/../data/raw_data/p06tycu8a34_1772524616873.csv,j_cert_far_from_alternative,5,21,affect of speed in perception of morality,TRUE,j,fast
13149,survey-likert,11,16,59857,p06tycu8a34,slow,moral,whale,21,male,NA,NA,"{""j_cert_quite_certain"":5,""n_cert_quite_certain"":1,""j_cert_far_from_alternative"":5,""n_cert_far_from_alternative"":1}",moral_stimulus_1,"[0,1,2,3]",certainty,/Users/martincz/GitHub/COGS119/group_wi26_moral_character/analysis/../data/raw_data/p06tycu8a34_1772524616873.csv,n_cert_far_from_alternative,1,21,affect of speed in perception of morality,TRUE,n,slow
10398,survey-likert,12,17,70257,p06tycu8a34,slow,moral,whale,21,male,NA,NA,"{""j_imp_calm_contained_RS"":4,""n_imp_calm_contained_RS"":3,""j_imp_upset_acted_without_thinking"":2,""n_imp_upset_acted_without_thinking"":3}",moral_stimulus_1,"[0,1,2,3]",emotional_impulsivity,/Users/martincz/GitHub/COGS119/group_wi26_moral_character/analysis/../data/raw_data/p06tycu8a34_1772524616873.csv,j_imp_calm_contained_RS,4,21,affect of speed in perception of morality,TRUE,j,fast
10398,survey-likert,12,18,70257,p06tycu8a34,slow,moral,whale,21,male,NA,NA,"{""j_imp_calm_contained_RS"":4,""n_imp_calm_contained_RS"":3,""j_imp_upset_acted_without_thinking"":2,""n_imp_upset_acted_without_thinking"":3}",moral_stimulus_1,"[0,1,2,3]",emotional_impulsivity,/Users/martincz/GitHub/COGS119/group_wi26_moral_character/analysis/../data/raw_data/p06tycu8a34_1772524616873.csv,n_imp_calm_contained_RS,3,21,affect of speed in perception of morality,TRUE,n,slow
10398,survey-likert,12,19,70257,p06tycu8a34,slow,moral,whale,21,male,NA,NA,"{""j_imp_calm_contained_RS"":4,""n_imp_calm_contained_RS"":3,""j_imp_upset_acted_without_thinking"":2,""n_imp_upset_acted_without_thinking"":3}",moral_stimulus_1,"[0,1,2,3]",emotional_impulsivity,/Users/martincz/GitHub/COGS119/group_wi26_moral_character/analysis/../data/raw_data/p06tycu8a34_1772524616873.csv,j_imp_upset_acted_without_thinking,2,21,affect of speed in perception of morality,TRUE,j,fast
10398,survey-likert,12,20,70257,p06tycu8a34,slow,moral,whale,21,male,NA,NA,"{""j_imp_calm_contained_RS"":4,""n_imp_calm_contained_RS"":3,""j_imp_upset_acted_without_thinking"":2,""n_imp_upset_acted_without_thinking"":3}",moral_stimulus_1,"[0,1,2,3]",emotional_impulsivity,/Users/martincz/GitHub/COGS119/group_wi26_moral_character/analysis/../data/raw_data/p06tycu8a34_1772524616873.csv,n_imp_upset_acted_without_thinking,3,21,affect of speed in perception of morality,TRUE,n,slow
3191,survey-likert,15,21,75323,p06tycu8a34,slow,moral,whale,21,male,NA,NA,"{""b_principles_eval"":4}",byst_scenario_slow,[0],byst_principles,/Users/martincz/GitHub/COGS119/group_wi26_moral_character/analysis/../data/raw_data/p06tycu8a34_1772524616873.csv,b_principles_eval,4,21,affect of speed in perception of morality,TRUE,b,bystander
1806,survey-likert,16,22,77130,p06tycu8a34,slow,moral,whale,21,male,NA,NA,"{""b_standards_eval"":2}",byst_scenario_slow,[0],byst_standards,/Users/martincz/GitHub/COGS119/group_wi26_moral_character/analysis/../data/raw_data/p06tycu8a34_1772524616873.csv,b_standards_eval,2,21,affect of speed in perception of morality,TRUE,b,bystander
1672,survey-likert,17,23,78804,p06tycu8a34,slow,moral,whale,21,male,NA,NA,"{""b_deepness_eval"":3}",byst_scenario_slow,[0],byst_depth,/Users/martincz/GitHub/COGS119/group_wi26_moral_character/analysis/../data/raw_data/p06tycu8a34_1772524616873.csv,b_deepness_eval,3,21,affect of speed in perception of morality,TRUE,b,bystander
4968,survey-likert,18,24,83775,p06tycu8a34,slow,moral,whale,21,male,NA,NA,"{""b_imp_calm_contained_RS"":1,""b_imp_upset_acted_without_thinking"":4}",byst_scenario_slow,"[0,1]",byst_emotional_impulsivity,/Users/martincz/GitHub/COGS119/group_wi26_moral_character/analysis/../data/raw_data/p06tycu8a34_1772524616873.csv,b_imp_calm_contained_RS,1,21,affect of speed in perception of morality,TRUE,b,bystander
4968,survey-likert,18,25,83775,p06tycu8a34,slow,moral,whale,21,male,NA,NA,"{""b_imp_calm_contained_RS"":1,""b_imp_upset_acted_without_thinking"":4}",byst_scenario_slow,"[0,1]",byst_emotional_impulsivity,/Users/martincz/GitHub/COGS119/group_wi26_moral_character/analysis/../data/raw_data/p06tycu8a34_1772524616873.csv,b_imp_upset_acted_without_thinking,4,21,affect of speed in perception of morality,TRUE,b,bystander
6663,survey-likert,19,26,90441,p06tycu8a34,slow,moral,whale,21,male,NA,NA,"{""B_cert_conflicted_RS"":5,""B_cert_quite_certain"":4,""B_cert_far_from_alternative"":3,""B_cert_reservations_RS"":2}",byst_scenario_slow,"[0,2,3,1]",byst_certainty,/Users/martincz/GitHub/COGS119/group_wi26_moral_character/analysis/../data/raw_data/p06tycu8a34_1772524616873.csv,B_cert_conflicted_RS,5,21,affect of speed in perception of morality,TRUE,b,bystander
6663,survey-likert,19,27,90441,p06tycu8a34,slow,moral,whale,21,male,NA,NA,"{""B_cert_conflicted_RS"":5,""B_cert_quite_certain"":4,""B_cert_far_from_alternative"":3,""B_cert_reservations_RS"":2}",byst_scenario_slow,"[0,2,3,1]",byst_certainty,/Users/martincz/GitHub/COGS119/group_wi26_moral_character/analysis/../data/raw_data/p06tycu8a34_1772524616873.csv,B_cert_quite_certain,4,21,affect of speed in perception of morality,TRUE,b,bystander
6663,survey-likert,19,28,90441,p06tycu8a34,slow,moral,whale,21,male,NA,NA,"{""B_cert_conflicted_RS"":5,""B_cert_quite_certain"":4,""B_cert_far_from_alternative"":3,""B_cert_reservations_RS"":2}",byst_scenario_slow,"[0,2,3,1]",byst_certainty,/Users/martincz/GitHub/COGS119/group_wi26_moral_character/analysis/../data/raw_data/p06tycu8a34_1772524616873.csv,B_cert_far_from_alternative,3,21,affect of speed in perception of morality,TRUE,b,bystander
6663,survey-likert,19,29,90441,p06tycu8a34,slow,moral,whale,21,male,NA,NA,"{""B_cert_conflicted_RS"":5,""B_cert_quite_certain"":4,""B_cert_far_from_alternative"":3,""B_cert_reservations_RS"":2}",byst_scenario_slow,"[0,2,3,1]",byst_certainty,/Users/martincz/GitHub/COGS119/group_wi26_moral_character/analysis/../data/raw_data/p06tycu8a34_1772524616873.csv,B_cert_reservations_RS,2,21,affect of speed in perception of morality,TRUE,b,bystander
13941,survey-likert,22,30,108927,p06tycu8a34,slow,moral,whale,21,male,NA,NA,"{""ma_gut_feelings"":5,""ma_character_reflective"":5,""ma_outcomes_matter"":4,""ma_some_actions_wrong"":5,""ma_think_through"":5}",byst_scenario_slow,"[0,4,2,3,1]",moral_attitudes,/Users/martincz/GitHub/COGS119/group_wi26_moral_character/analysis/../data/raw_data/p06tycu8a34_1772524616873.csv,ma_gut_feelings,5,21,affect of speed in perception of morality,TRUE,NA,NA
13941,survey-likert,22,31,108927,p06tycu8a34,slow,moral,whale,21,male,NA,NA,"{""ma_gut_feelings"":5,""ma_character_reflective"":5,""ma_outcomes_matter"":4,""ma_some_actions_wrong"":5,""ma_think_through"":5}",byst_scenario_slow,"[0,4,2,3,1]",moral_attitudes,/Users/martincz/GitHub/COGS119/group_wi26_moral_character/analysis/../data/raw_data/p06tycu8a34_1772524616873.csv,ma_character_reflective,5,21,affect of speed in perception of morality,TRUE,NA,NA
13941,survey-likert,22,32,108927,p06tycu8a34,slow,moral,whale,21,male,NA,NA,"{""ma_gut_feelings"":5,""ma_character_reflective"":5,""ma_outcomes_matter"":4,""ma_some_actions_wrong"":5,""ma_think_through"":5}",byst_scenario_slow,"[0,4,2,3,1]",moral_attitudes,/Users/martincz/GitHub/COGS119/group_wi26_moral_character/analysis/../data/raw_data/p06tycu8a34_1772524616873.csv,ma_outcomes_matter,4,21,affect of speed in perception of morality,TRUE,NA,NA
13941,survey-likert,22,33,108927,p06tycu8a34,slow,moral,whale,21,male,NA,NA,"{""ma_gut_feelings"":5,""ma_character_reflective"":5,""ma_outcomes_matter"":4,""ma_some_actions_wrong"":5,""ma_think_through"":5}",byst_scenario_slow,"[0,4,2,3,1]",moral_attitudes,/Users/martincz/GitHub/COGS119/group_wi26_moral_character/analysis/../data/raw_data/p06tycu8a34_1772524616873.csv,ma_some_actions_wrong,5,21,affect of speed in perception of morality,TRUE,NA,NA
13941,survey-likert,22,34,108927,p06tycu8a34,slow,moral,whale,21,male,NA,NA,"{""ma_gut_feelings"":5,""ma_character_reflective"":5,""ma_outcomes_matter"":4,""ma_some_actions_wrong"":5,""ma_think_through"":5}",byst_scenario_slow,"[0,4,2,3,1]",moral_attitudes,/Users/martincz/GitHub/COGS119/group_wi26_moral_character/analysis/../data/raw_data/p06tycu8a34_1772524616873.csv,ma_think_through,5,21,affect of speed in perception of morality,TRUE,NA,NA
7316,survey-likert,6,1,81522,p0sfjew6kvk,quick,immoral,pony,21,female,NA,NA,"{""j_manipulation_check"":6,""n_manipulation_check"":2}",immoral_stimulus_2,"[0,1]",manipulation_check,/Users/martincz/GitHub/COGS119/group_wi26_moral_character/analysis/../data/raw_data/p0sfjew6kvk_1772139232472.csv,j_manipulation_check,6,21,moral dilemmas,FALSE,j,fast
7316,survey-likert,6,2,81522,p0sfjew6kvk,quick,immoral,pony,21,female,NA,NA,"{""j_manipulation_check"":6,""n_manipulation_check"":2}",immoral_stimulus_2,"[0,1]",manipulation_check,/Users/martincz/GitHub/COGS119/group_wi26_moral_character/analysis/../data/raw_data/p0sfjew6kvk_1772139232472.csv,n_manipulation_check,2,21,moral dilemmas,FALSE,n,slow
27314,survey-likert,7,3,108840,p0sfjew6kvk,quick,immoral,pony,21,female,NA,NA,"{""j_standards_eval"":0,""n_standards_eval"":1}",immoral_stimulus_2,"[0,1]",standards,/Users/martincz/GitHub/COGS119/group_wi26_moral_character/analysis/../data/raw_data/p0sfjew6kvk_1772139232472.csv,n_standards_eval,1,21,moral dilemmas,FALSE,n,slow
27314,survey-likert,7,4,108840,p0sfjew6kvk,quick,immoral,pony,21,female,NA,NA,"{""j_standards_eval"":0,""n_standards_eval"":1}",immoral_stimulus_2,"[0,1]",standards,/Users/martincz/GitHub/COGS119/group_wi26_moral_character/analysis/../data/raw_data/p0sfjew6kvk_1772139232472.csv,j_standards_eval,0,21,moral dilemmas,FALSE,j,fast
8983,survey-likert,8,5,117825,p0sfjew6kvk,quick,immoral,pony,21,female,NA,NA,"{""j_principles_eval"":0,""n_principles_eval"":1}",immoral_stimulus_2,"[0,1]",principles,/Users/martincz/GitHub/COGS119/group_wi26_moral_character/analysis/../data/raw_data/p0sfjew6kvk_1772139232472.csv,n_principles_eval,1,21,moral dilemmas,FALSE,n,slow
8983,survey-likert,8,6,117825,p0sfjew6kvk,quick,immoral,pony,21,female,NA,NA,"{""j_principles_eval"":0,""n_principles_eval"":1}",immoral_stimulus_2,"[0,1]",principles,/Users/martincz/GitHub/COGS119/group_wi26_moral_character/analysis/../data/raw_data/p0sfjew6kvk_1772139232472.csv,j_principles_eval,0,21,moral dilemmas,FALSE,j,fast
9952,survey-likert,9,7,127789,p0sfjew6kvk,quick,immoral,pony,21,female,NA,NA,"{""j_deepness_eval"":0,""n_deepness_eval"":1}",immoral_stimulus_2,"[0,1]",depth,/Users/martincz/GitHub/COGS119/group_wi26_moral_character/analysis/../data/raw_data/p0sfjew6kvk_1772139232472.csv,n_deepness_eval,1,21,moral dilemmas,FALSE,n,slow
9952,survey-likert,9,8,127789,p0sfjew6kvk,quick,immoral,pony,21,female,NA,NA,"{""j_deepness_eval"":0,""n_deepness_eval"":1}",immoral_stimulus_2,"[0,1]",depth,/Users/martincz/GitHub/COGS119/group_wi26_moral_character/analysis/../data/raw_data/p0sfjew6kvk_1772139232472.csv,j_deepness_eval,0,21,moral dilemmas,FALSE,j,fast
12248,survey-likert,10,9,140050,p0sfjew6kvk,quick,immoral,pony,21,female,NA,NA,"{""j_cert_conflicted_RS"":0,""n_cert_conflicted_RS"":5,""j_cert_reservations_RS"":0,""n_cert_reservations_RS"":4}",immoral_stimulus_2,"[0,1,2,3]",certainty,/Users/martincz/GitHub/COGS119/group_wi26_moral_character/analysis/../data/raw_data/p0sfjew6kvk_1772139232472.csv,j_cert_conflicted_RS,0,21,moral dilemmas,FALSE,j,fast
12248,survey-likert,10,10,140050,p0sfjew6kvk,quick,immoral,pony,21,female,NA,NA,"{""j_cert_conflicted_RS"":0,""n_cert_conflicted_RS"":5,""j_cert_reservations_RS"":0,""n_cert_reservations_RS"":4}",immoral_stimulus_2,"[0,1,2,3]",certainty,/Users/martincz/GitHub/COGS119/group_wi26_moral_character/analysis/../data/raw_data/p0sfjew6kvk_1772139232472.csv,n_cert_conflicted_RS,5,21,moral dilemmas,FALSE,n,slow
12248,survey-likert,10,11,140050,p0sfjew6kvk,quick,immoral,pony,21,female,NA,NA,"{""j_cert_conflicted_RS"":0,""n_cert_conflicted_RS"":5,""j_cert_reservations_RS"":0,""n_cert_reservations_RS"":4}",immoral_stimulus_2,"[0,1,2,3]",certainty,/Users/martincz/GitHub/COGS119/group_wi26_moral_character/analysis/../data/raw_data/p0sfjew6kvk_1772139232472.csv,j_cert_reservations_RS,0,21,moral dilemmas,FALSE,j,fast
12248,survey-likert,10,12,140050,p0sfjew6kvk,quick,immoral,pony,21,female,NA,NA,"{""j_cert_conflicted_RS"":0,""n_cert_conflicted_RS"":5,""j_cert_reservations_RS"":0,""n_cert_reservations_RS"":4}",immoral_stimulus_2,"[0,1,2,3]",certainty,/Users/martincz/GitHub/COGS119/group_wi26_moral_character/analysis/../data/raw_data/p0sfjew6kvk_1772139232472.csv,n_cert_reservations_RS,4,21,moral dilemmas,FALSE,n,slow
22433,survey-likert,11,13,162494,p0sfjew6kvk,quick,immoral,pony,21,female,NA,NA,"{""j_cert_quite_certain"":6,""n_cert_quite_certain"":4,""j_cert_far_from_alternative"":5,""n_cert_far_from_alternative"":3}",immoral_stimulus_2,"[0,1,2,3]",certainty,/Users/martincz/GitHub/COGS119/group_wi26_moral_character/analysis/../data/raw_data/p0sfjew6kvk_1772139232472.csv,j_cert_quite_certain,6,21,moral dilemmas,FALSE,j,fast
22433,survey-likert,11,14,162494,p0sfjew6kvk,quick,immoral,pony,21,female,NA,NA,"{""j_cert_quite_certain"":6,""n_cert_quite_certain"":4,""j_cert_far_from_alternative"":5,""n_cert_far_from_alternative"":3}",immoral_stimulus_2,"[0,1,2,3]",certainty,/Users/martincz/GitHub/COGS119/group_wi26_moral_character/analysis/../data/raw_data/p0sfjew6kvk_1772139232472.csv,n_cert_quite_certain,4,21,moral dilemmas,FALSE,n,slow
22433,survey-likert,11,15,162494,p0sfjew6kvk,quick,immoral,pony,21,female,NA,NA,"{""j_cert_quite_certain"":6,""n_cert_quite_certain"":4,""j_cert_far_from_alternative"":5,""n_cert_far_from_alternative"":3}",immoral_stimulus_2,"[0,1,2,3]",certainty,/Users/martincz/GitHub/COGS119/group_wi26_moral_character/analysis/../data/raw_data/p0sfjew6kvk_1772139232472.csv,j_cert_far_from_alternative,5,21,moral dilemmas,FALSE,j,fast
22433,survey-likert,11,16,162494,p0sfjew6kvk,quick,immoral,pony,21,female,NA,NA,"{""j_cert_quite_certain"":6,""n_cert_quite_certain"":4,""j_cert_far_from_alternative"":5,""n_cert_far_from_alternative"":3}",immoral_stimulus_2,"[0,1,2,3]",certainty,/Users/martincz/GitHub/COGS119/group_wi26_moral_character/analysis/../data/raw_data/p0sfjew6kvk_1772139232472.csv,n_cert_far_from_alternative,3,21,moral dilemmas,FALSE,n,slow
12081,survey-likert,12,17,174588,p0sfjew6kvk,quick,immoral,pony,21,female,NA,NA,"{""j_imp_calm_contained_RS"":6,""n_imp_calm_contained_RS"":4,""j_imp_upset_acted_without_thinking"":1,""n_imp_upset_acted_without_thinking"":1}",immoral_stimulus_2,"[0,1,2,3]",emotional_impulsivity,/Users/martincz/GitHub/COGS119/group_wi26_moral_character/analysis/../data/raw_data/p0sfjew6kvk_1772139232472.csv,j_imp_calm_contained_RS,6,21,moral dilemmas,FALSE,j,fast
12081,survey-likert,12,18,174588,p0sfjew6kvk,quick,immoral,pony,21,female,NA,NA,"{""j_imp_calm_contained_RS"":6,""n_imp_calm_contained_RS"":4,""j_imp_upset_acted_without_thinking"":1,""n_imp_upset_acted_without_thinking"":1}",immoral_stimulus_2,"[0,1,2,3]",emotional_impulsivity,/Users/martincz/GitHub/COGS119/group_wi26_moral_character/analysis/../data/raw_data/p0sfjew6kvk_1772139232472.csv,n_imp_calm_contained_RS,4,21,moral dilemmas,FALSE,n,slow
12081,survey-likert,12,19,174588,p0sfjew6kvk,quick,immoral,pony,21,female,NA,NA,"{""j_imp_calm_contained_RS"":6,""n_imp_calm_contained_RS"":4,""j_imp_upset_acted_without_thinking"":1,""n_imp_upset_acted_without_thinking"":1}",immoral_stimulus_2,"[0,1,2,3]",emotional_impulsivity,/Users/martincz/GitHub/COGS119/group_wi26_moral_character/analysis/../data/raw_data/p0sfjew6kvk_1772139232472.csv,j_imp_upset_acted_without_thinking,1,21,moral dilemmas,FALSE,j,fast
12081,survey-likert,12,20,174588,p0sfjew6kvk,quick,immoral,pony,21,female,NA,NA,"{""j_imp_calm_contained_RS"":6,""n_imp_calm_contained_RS"":4,""j_imp_upset_acted_without_thinking"":1,""n_imp_upset_acted_without_thinking"":1}",immoral_stimulus_2,"[0,1,2,3]",emotional_impulsivity,/Users/martincz/GitHub/COGS119/group_wi26_moral_character/analysis/../data/raw_data/p0sfjew6kvk_1772139232472.csv,n_imp_upset_acted_without_thinking,1,21,moral dilemmas,FALSE,n,slow
4633,survey-likert,15,21,189291,p0sfjew6kvk,quick,immoral,pony,21,female,NA,NA,"{""b_principles_eval"":5}",byst_scenario_quick,[0],byst_principles,/Users/martincz/GitHub/COGS119/group_wi26_moral_character/analysis/../data/raw_data/p0sfjew6kvk_1772139232472.csv,b_principles_eval,5,21,moral dilemmas,FALSE,b,bystander
3145,survey-likert,16,22,192438,p0sfjew6kvk,quick,immoral,pony,21,female,NA,NA,"{""b_standards_eval"":5}",byst_scenario_quick,[0],byst_standards,/Users/martincz/GitHub/COGS119/group_wi26_moral_character/analysis/../data/raw_data/p0sfjew6kvk_1772139232472.csv,b_standards_eval,5,21,moral dilemmas,FALSE,b,bystander
2090,survey-likert,17,23,194530,p0sfjew6kvk,quick,immoral,pony,21,female,NA,NA,"{""b_deepness_eval"":5}",byst_scenario_quick,[0],byst_depth,/Users/martincz/GitHub/COGS119/group_wi26_moral_character/analysis/../data/raw_data/p0sfjew6kvk_1772139232472.csv,b_deepness_eval,5,21,moral dilemmas,FALSE,b,bystander
29401,survey-likert,18,24,223942,p0sfjew6kvk,quick,immoral,pony,21,female,NA,NA,"{""B_cert_conflicted_RS"":0,""B_cert_far_from_alternative"":5,""B_cert_quite_certain"":4,""B_cert_reservations_RS"":0}",byst_scenario_quick,"[0,3,2,1]",byst_certainty,/Users/martincz/GitHub/COGS119/group_wi26_moral_character/analysis/../data/raw_data/p0sfjew6kvk_1772139232472.csv,B_cert_conflicted_RS,0,21,moral dilemmas,FALSE,b,bystander
29401,survey-likert,18,25,223942,p0sfjew6kvk,quick,immoral,pony,21,female,NA,NA,"{""B_cert_conflicted_RS"":0,""B_cert_far_from_alternative"":5,""B_cert_quite_certain"":4,""B_cert_reservations_RS"":0}",byst_scenario_quick,"[0,3,2,1]",byst_certainty,/Users/martincz/GitHub/COGS119/group_wi26_moral_character/analysis/../data/raw_data/p0sfjew6kvk_1772139232472.csv,B_cert_quite_certain,4,21,moral dilemmas,FALSE,b,bystander
29401,survey-likert,18,26,223942,p0sfjew6kvk,quick,immoral,pony,21,female,NA,NA,"{""B_cert_conflicted_RS"":0,""B_cert_far_from_alternative"":5,""B_cert_quite_certain"":4,""B_cert_reservations_RS"":0}",byst_scenario_quick,"[0,3,2,1]",byst_certainty,/Users/martincz/GitHub/COGS119/group_wi26_moral_character/analysis/../data/raw_data/p0sfjew6kvk_1772139232472.csv,B_cert_far_from_alternative,5,21,moral dilemmas,FALSE,b,bystander
29401,survey-likert,18,27,223942,p0sfjew6kvk,quick,immoral,pony,21,female,NA,NA,"{""B_cert_conflicted_RS"":0,""B_cert_far_from_alternative"":5,""B_cert_quite_certain"":4,""B_cert_reservations_RS"":0}",byst_scenario_quick,"[0,3,2,1]",byst_certainty,/Users/martincz/GitHub/COGS119/group_wi26_moral_character/analysis/../data/raw_data/p0sfjew6kvk_1772139232472.csv,B_cert_reservations_RS,0,21,moral dilemmas,FALSE,b,bystander
7517,survey-likert,19,28,231472,p0sfjew6kvk,quick,immoral,pony,21,female,NA,NA,"{""b_imp_upset_acted_without_thinking"":0,""b_imp_calm_contained_RS"":5}",byst_scenario_quick,"[1,0]",byst_emotional_impulsivity,/Users/martincz/GitHub/COGS119/group_wi26_moral_character/analysis/../data/raw_data/p0sfjew6kvk_1772139232472.csv,b_imp_calm_contained_RS,5,21,moral dilemmas,FALSE,b,bystander
7517,survey-likert,19,29,231472,p0sfjew6kvk,quick,immoral,pony,21,female,NA,NA,"{""b_imp_upset_acted_without_thinking"":0,""b_imp_calm_contained_RS"":5}",byst_scenario_quick,"[1,0]",byst_emotional_impulsivity,/Users/martincz/GitHub/COGS119/group_wi26_moral_character/analysis/../data/raw_data/p0sfjew6kvk_1772139232472.csv,b_imp_upset_acted_without_thinking,0,21,moral dilemmas,FALSE,b,bystander
19452,survey-likert,22,30,257943,p0sfjew6kvk,quick,immoral,pony,21,female,NA,NA,"{""ma_think_through"":5,""ma_gut_feelings"":6,""ma_character_reflective"":5,""ma_some_actions_wrong"":4,""ma_outcomes_matter"":4}",byst_scenario_quick,"[1,0,4,3,2]",moral_attitudes,/Users/martincz/GitHub/COGS119/group_wi26_moral_character/analysis/../data/raw_data/p0sfjew6kvk_1772139232472.csv,ma_gut_feelings,6,21,moral dilemmas,FALSE,NA,NA
19452,survey-likert,22,31,257943,p0sfjew6kvk,quick,immoral,pony,21,female,NA,NA,"{""ma_think_through"":5,""ma_gut_feelings"":6,""ma_character_reflective"":5,""ma_some_actions_wrong"":4,""ma_outcomes_matter"":4}",byst_scenario_quick,"[1,0,4,3,2]",moral_attitudes,/Users/martincz/GitHub/COGS119/group_wi26_moral_character/analysis/../data/raw_data/p0sfjew6kvk_1772139232472.csv,ma_character_reflective,5,21,moral dilemmas,FALSE,NA,NA
19452,survey-likert,22,32,257943,p0sfjew6kvk,quick,immoral,pony,21,female,NA,NA,"{""ma_think_through"":5,""ma_gut_feelings"":6,""ma_character_reflective"":5,""ma_some_actions_wrong"":4,""ma_outcomes_matter"":4}",byst_scenario_quick,"[1,0,4,3,2]",moral_attitudes,/Users/martincz/GitHub/COGS119/group_wi26_moral_character/analysis/../data/raw_data/p0sfjew6kvk_1772139232472.csv,ma_outcomes_matter,4,21,moral dilemmas,FALSE,NA,NA
19452,survey-likert,22,33,257943,p0sfjew6kvk,quick,immoral,pony,21,female,NA,NA,"{""ma_think_through"":5,""ma_gut_feelings"":6,""ma_character_reflective"":5,""ma_some_actions_wrong"":4,""ma_outcomes_matter"":4}",byst_scenario_quick,"[1,0,4,3,2]",moral_attitudes,/Users/martincz/GitHub/COGS119/group_wi26_moral_character/analysis/../data/raw_data/p0sfjew6kvk_1772139232472.csv,ma_some_actions_wrong,4,21,moral dilemmas,FALSE,NA,NA
19452,survey-likert,22,34,257943,p0sfjew6kvk,quick,immoral,pony,21,female,NA,NA,"{""ma_think_through"":5,""ma_gut_feelings"":6,""ma_character_reflective"":5,""ma_some_actions_wrong"":4,""ma_outcomes_matter"":4}",byst_scenario_quick,"[1,0,4,3,2]",moral_attitudes,/Users/martincz/GitHub/COGS119/group_wi26_moral_character/analysis/../data/raw_data/p0sfjew6kvk_1772139232472.csv,ma_think_through,5,21,moral dilemmas,FALSE,NA,NA
11455,survey-likert,6,1,52694,p2956xcvuq2,quick,immoral,otter,21,female,NA,NA,"{""n_manipulation_check"":6,""j_manipulation_check"":1}",immoral_stimulus_1,"[1,0]",manipulation_check,/Users/martincz/GitHub/COGS119/group_wi26_moral_character/analysis/../data/raw_data/p2956xcvuq2_1772139916652.csv,j_manipulation_check,1,21,n/a,FALSE,j,fast
11455,survey-likert,6,2,52694,p2956xcvuq2,quick,immoral,otter,21,female,NA,NA,"{""n_manipulation_check"":6,""j_manipulation_check"":1}",immoral_stimulus_1,"[1,0]",manipulation_check,/Users/martincz/GitHub/COGS119/group_wi26_moral_character/analysis/../data/raw_data/p2956xcvuq2_1772139916652.csv,n_manipulation_check,6,21,n/a,FALSE,n,slow
43976,survey-likert,7,3,96672,p2956xcvuq2,quick,immoral,otter,21,female,NA,NA,"{""j_principles_eval"":1,""n_principles_eval"":2}",immoral_stimulus_1,"[0,1]",principles,/Users/martincz/GitHub/COGS119/group_wi26_moral_character/analysis/../data/raw_data/p2956xcvuq2_1772139916652.csv,n_principles_eval,2,21,n/a,FALSE,n,slow
43976,survey-likert,7,4,96672,p2956xcvuq2,quick,immoral,otter,21,female,NA,NA,"{""j_principles_eval"":1,""n_principles_eval"":2}",immoral_stimulus_1,"[0,1]",principles,/Users/martincz/GitHub/COGS119/group_wi26_moral_character/analysis/../data/raw_data/p2956xcvuq2_1772139916652.csv,j_principles_eval,1,21,n/a,FALSE,j,fast
16418,survey-likert,8,5,113090,p2956xcvuq2,quick,immoral,otter,21,female,NA,NA,"{""j_standards_eval"":1,""n_standards_eval"":2}",immoral_stimulus_1,"[0,1]",standards,/Users/martincz/GitHub/COGS119/group_wi26_moral_character/analysis/../data/raw_data/p2956xcvuq2_1772139916652.csv,n_standards_eval,2,21,n/a,FALSE,n,slow
16418,survey-likert,8,6,113090,p2956xcvuq2,quick,immoral,otter,21,female,NA,NA,"{""j_standards_eval"":1,""n_standards_eval"":2}",immoral_stimulus_1,"[0,1]",standards,/Users/martincz/GitHub/COGS119/group_wi26_moral_character/analysis/../data/raw_data/p2956xcvuq2_1772139916652.csv,j_standards_eval,1,21,n/a,FALSE,j,fast
20935,survey-likert,9,7,134026,p2956xcvuq2,quick,immoral,otter,21,female,NA,NA,"{""n_deepness_eval"":4,""j_deepness_eval"":2}",immoral_stimulus_1,"[1,0]",depth,/Users/martincz/GitHub/COGS119/group_wi26_moral_character/analysis/../data/raw_data/p2956xcvuq2_1772139916652.csv,n_deepness_eval,4,21,n/a,FALSE,n,slow
20935,survey-likert,9,8,134026,p2956xcvuq2,quick,immoral,otter,21,female,NA,NA,"{""n_deepness_eval"":4,""j_deepness_eval"":2}",immoral_stimulus_1,"[1,0]",depth,/Users/martincz/GitHub/COGS119/group_wi26_moral_character/analysis/../data/raw_data/p2956xcvuq2_1772139916652.csv,j_deepness_eval,2,21,n/a,FALSE,j,fast
19228,survey-likert,10,9,153256,p2956xcvuq2,quick,immoral,otter,21,female,NA,NA,"{""j_cert_conflicted_RS"":0,""n_cert_conflicted_RS"":6,""j_cert_reservations_RS"":0,""n_cert_reservations_RS"":5}",immoral_stimulus_1,"[0,1,2,3]",certainty,/Users/martincz/GitHub/COGS119/group_wi26_moral_character/analysis/../data/raw_data/p2956xcvuq2_1772139916652.csv,j_cert_conflicted_RS,0,21,n/a,FALSE,j,fast
19228,survey-likert,10,10,153256,p2956xcvuq2,quick,immoral,otter,21,female,NA,NA,"{""j_cert_conflicted_RS"":0,""n_cert_conflicted_RS"":6,""j_cert_reservations_RS"":0,""n_cert_reservations_RS"":5}",immoral_stimulus_1,"[0,1,2,3]",certainty,/Users/martincz/GitHub/COGS119/group_wi26_moral_character/analysis/../data/raw_data/p2956xcvuq2_1772139916652.csv,n_cert_conflicted_RS,6,21,n/a,FALSE,n,slow
19228,survey-likert,10,11,153256,p2956xcvuq2,quick,immoral,otter,21,female,NA,NA,"{""j_cert_conflicted_RS"":0,""n_cert_conflicted_RS"":6,""j_cert_reservations_RS"":0,""n_cert_reservations_RS"":5}",immoral_stimulus_1,"[0,1,2,3]",certainty,/Users/martincz/GitHub/COGS119/group_wi26_moral_character/analysis/../data/raw_data/p2956xcvuq2_1772139916652.csv,j_cert_reservations_RS,0,21,n/a,FALSE,j,fast
19228,survey-likert,10,12,153256,p2956xcvuq2,quick,immoral,otter,21,female,NA,NA,"{""j_cert_conflicted_RS"":0,""n_cert_conflicted_RS"":6,""j_cert_reservations_RS"":0,""n_cert_reservations_RS"":5}",immoral_stimulus_1,"[0,1,2,3]",certainty,/Users/martincz/GitHub/COGS119/group_wi26_moral_character/analysis/../data/raw_data/p2956xcvuq2_1772139916652.csv,n_cert_reservations_RS,5,21,n/a,FALSE,n,slow
13954,survey-likert,11,13,167212,p2956xcvuq2,quick,immoral,otter,21,female,NA,NA,"{""j_cert_quite_certain"":6,""n_cert_quite_certain"":1,""j_cert_far_from_alternative"":0,""n_cert_far_from_alternative"":4}",immoral_stimulus_1,"[0,1,2,3]",certainty,/Users/martincz/GitHub/COGS119/group_wi26_moral_character/analysis/../data/raw_data/p2956xcvuq2_1772139916652.csv,j_cert_quite_certain,6,21,n/a,FALSE,j,fast
13954,survey-likert,11,14,167212,p2956xcvuq2,quick,immoral,otter,21,female,NA,NA,"{""j_cert_quite_certain"":6,""n_cert_quite_certain"":1,""j_cert_far_from_alternative"":0,""n_cert_far_from_alternative"":4}",immoral_stimulus_1,"[0,1,2,3]",certainty,/Users/martincz/GitHub/COGS119/group_wi26_moral_character/analysis/../data/raw_data/p2956xcvuq2_1772139916652.csv,n_cert_quite_certain,1,21,n/a,FALSE,n,slow
13954,survey-likert,11,15,167212,p2956xcvuq2,quick,immoral,otter,21,female,NA,NA,"{""j_cert_quite_certain"":6,""n_cert_quite_certain"":1,""j_cert_far_from_alternative"":0,""n_cert_far_from_alternative"":4}",immoral_stimulus_1,"[0,1,2,3]",certainty,/Users/martincz/GitHub/COGS119/group_wi26_moral_character/analysis/../data/raw_data/p2956xcvuq2_1772139916652.csv,j_cert_far_from_alternative,0,21,n/a,FALSE,j,fast
13954,survey-likert,11,16,167212,p2956xcvuq2,quick,immoral,otter,21,female,NA,NA,"{""j_cert_quite_certain"":6,""n_cert_quite_certain"":1,""j_cert_far_from_alternative"":0,""n_cert_far_from_alternative"":4}",immoral_stimulus_1,"[0,1,2,3]",certainty,/Users/martincz/GitHub/COGS119/group_wi26_moral_character/analysis/../data/raw_data/p2956xcvuq2_1772139916652.csv,n_cert_far_from_alternative,4,21,n/a,FALSE,n,slow
13882,survey-likert,12,17,181094,p2956xcvuq2,quick,immoral,otter,21,female,NA,NA,"{""j_imp_calm_contained_RS"":6,""n_imp_calm_contained_RS"":2,""j_imp_upset_acted_without_thinking"":0,""n_imp_upset_acted_without_thinking"":0}",immoral_stimulus_1,"[0,1,2,3]",emotional_impulsivity,/Users/martincz/GitHub/COGS119/group_wi26_moral_character/analysis/../data/raw_data/p2956xcvuq2_1772139916652.csv,j_imp_calm_contained_RS,6,21,n/a,FALSE,j,fast
13882,survey-likert,12,18,181094,p2956xcvuq2,quick,immoral,otter,21,female,NA,NA,"{""j_imp_calm_contained_RS"":6,""n_imp_calm_contained_RS"":2,""j_imp_upset_acted_without_thinking"":0,""n_imp_upset_acted_without_thinking"":0}",immoral_stimulus_1,"[0,1,2,3]",emotional_impulsivity,/Users/martincz/GitHub/COGS119/group_wi26_moral_character/analysis/../data/raw_data/p2956xcvuq2_1772139916652.csv,n_imp_calm_contained_RS,2,21,n/a,FALSE,n,slow
13882,survey-likert,12,19,181094,p2956xcvuq2,quick,immoral,otter,21,female,NA,NA,"{""j_imp_calm_contained_RS"":6,""n_imp_calm_contained_RS"":2,""j_imp_upset_acted_without_thinking"":0,""n_imp_upset_acted_without_thinking"":0}",immoral_stimulus_1,"[0,1,2,3]",emotional_impulsivity,/Users/martincz/GitHub/COGS119/group_wi26_moral_character/analysis/../data/raw_data/p2956xcvuq2_1772139916652.csv,j_imp_upset_acted_without_thinking,0,21,n/a,FALSE,j,fast
13882,survey-likert,12,20,181094,p2956xcvuq2,quick,immoral,otter,21,female,NA,NA,"{""j_imp_calm_contained_RS"":6,""n_imp_calm_contained_RS"":2,""j_imp_upset_acted_without_thinking"":0,""n_imp_upset_acted_without_thinking"":0}",immoral_stimulus_1,"[0,1,2,3]",emotional_impulsivity,/Users/martincz/GitHub/COGS119/group_wi26_moral_character/analysis/../data/raw_data/p2956xcvuq2_1772139916652.csv,n_imp_upset_acted_without_thinking,0,21,n/a,FALSE,n,slow
7572,survey-likert,15,21,197811,p2956xcvuq2,quick,immoral,otter,21,female,NA,NA,"{""b_principles_eval"":6}",byst_scenario_quick,[0],byst_principles,/Users/martincz/GitHub/COGS119/group_wi26_moral_character/analysis/../data/raw_data/p2956xcvuq2_1772139916652.csv,b_principles_eval,6,21,n/a,FALSE,b,bystander
10842,survey-likert,16,22,208654,p2956xcvuq2,quick,immoral,otter,21,female,NA,NA,"{""b_standards_eval"":6}",byst_scenario_quick,[0],byst_standards,/Users/martincz/GitHub/COGS119/group_wi26_moral_character/analysis/../data/raw_data/p2956xcvuq2_1772139916652.csv,b_standards_eval,6,21,n/a,FALSE,b,bystander
5544,survey-likert,17,23,214199,p2956xcvuq2,quick,immoral,otter,21,female,NA,NA,"{""b_deepness_eval"":5}",byst_scenario_quick,[0],byst_depth,/Users/martincz/GitHub/COGS119/group_wi26_moral_character/analysis/../data/raw_data/p2956xcvuq2_1772139916652.csv,b_deepness_eval,5,21,n/a,FALSE,b,bystander
14755,survey-likert,18,24,228954,p2956xcvuq2,quick,immoral,otter,21,female,NA,NA,"{""B_cert_quite_certain"":6,""B_cert_conflicted_RS"":0,""B_cert_far_from_alternative"":0,""B_cert_reservations_RS"":0}",byst_scenario_quick,"[2,0,3,1]",byst_certainty,/Users/martincz/GitHub/COGS119/group_wi26_moral_character/analysis/../data/raw_data/p2956xcvuq2_1772139916652.csv,B_cert_conflicted_RS,0,21,n/a,FALSE,b,bystander
14755,survey-likert,18,25,228954,p2956xcvuq2,quick,immoral,otter,21,female,NA,NA,"{""B_cert_quite_certain"":6,""B_cert_conflicted_RS"":0,""B_cert_far_from_alternative"":0,""B_cert_reservations_RS"":0}",byst_scenario_quick,"[2,0,3,1]",byst_certainty,/Users/martincz/GitHub/COGS119/group_wi26_moral_character/analysis/../data/raw_data/p2956xcvuq2_1772139916652.csv,B_cert_quite_certain,6,21,n/a,FALSE,b,bystander
14755,survey-likert,18,26,228954,p2956xcvuq2,quick,immoral,otter,21,female,NA,NA,"{""B_cert_quite_certain"":6,""B_cert_conflicted_RS"":0,""B_cert_far_from_alternative"":0,""B_cert_reservations_RS"":0}",byst_scenario_quick,"[2,0,3,1]",byst_certainty,/Users/martincz/GitHub/COGS119/group_wi26_moral_character/analysis/../data/raw_data/p2956xcvuq2_1772139916652.csv,B_cert_far_from_alternative,0,21,n/a,FALSE,b,bystander
14755,survey-likert,18,27,228954,p2956xcvuq2,quick,immoral,otter,21,female,NA,NA,"{""B_cert_quite_certain"":6,""B_cert_conflicted_RS"":0,""B_cert_far_from_alternative"":0,""B_cert_reservations_RS"":0}",byst_scenario_quick,"[2,0,3,1]",byst_certainty,/Users/martincz/GitHub/COGS119/group_wi26_moral_character/analysis/../data/raw_data/p2956xcvuq2_1772139916652.csv,B_cert_reservations_RS,0,21,n/a,FALSE,b,bystander
5629,survey-likert,19,28,234584,p2956xcvuq2,quick,immoral,otter,21,female,NA,NA,"{""b_imp_upset_acted_without_thinking"":0,""b_imp_calm_contained_RS"":6}",byst_scenario_quick,"[1,0]",byst_emotional_impulsivity,/Users/martincz/GitHub/COGS119/group_wi26_moral_character/analysis/../data/raw_data/p2956xcvuq2_1772139916652.csv,b_imp_calm_contained_RS,6,21,n/a,FALSE,b,bystander
5629,survey-likert,19,29,234584,p2956xcvuq2,quick,immoral,otter,21,female,NA,NA,"{""b_imp_upset_acted_without_thinking"":0,""b_imp_calm_contained_RS"":6}",byst_scenario_quick,"[1,0]",byst_emotional_impulsivity,/Users/martincz/GitHub/COGS119/group_wi26_moral_character/analysis/../data/raw_data/p2956xcvuq2_1772139916652.csv,b_imp_upset_acted_without_thinking,0,21,n/a,FALSE,b,bystander
37960,survey-likert,22,30,278729,p2956xcvuq2,quick,immoral,otter,21,female,NA,NA,"{""ma_think_through"":6,""ma_outcomes_matter"":5,""ma_character_reflective"":4,""ma_gut_feelings"":4,""ma_some_actions_wrong"":2}",byst_scenario_quick,"[1,2,4,0,3]",moral_attitudes,/Users/martincz/GitHub/COGS119/group_wi26_moral_character/analysis/../data/raw_data/p2956xcvuq2_1772139916652.csv,ma_gut_feelings,4,21,n/a,FALSE,NA,NA
37960,survey-likert,22,31,278729,p2956xcvuq2,quick,immoral,otter,21,female,NA,NA,"{""ma_think_through"":6,""ma_outcomes_matter"":5,""ma_character_reflective"":4,""ma_gut_feelings"":4,""ma_some_actions_wrong"":2}",byst_scenario_quick,"[1,2,4,0,3]",moral_attitudes,/Users/martincz/GitHub/COGS119/group_wi26_moral_character/analysis/../data/raw_data/p2956xcvuq2_1772139916652.csv,ma_character_reflective,4,21,n/a,FALSE,NA,NA
37960,survey-likert,22,32,278729,p2956xcvuq2,quick,immoral,otter,21,female,NA,NA,"{""ma_think_through"":6,""ma_outcomes_matter"":5,""ma_character_reflective"":4,""ma_gut_feelings"":4,""ma_some_actions_wrong"":2}",byst_scenario_quick,"[1,2,4,0,3]",moral_attitudes,/Users/martincz/GitHub/COGS119/group_wi26_moral_character/analysis/../data/raw_data/p2956xcvuq2_1772139916652.csv,ma_outcomes_matter,5,21,n/a,FALSE,NA,NA
37960,survey-likert,22,33,278729,p2956xcvuq2,quick,immoral,otter,21,female,NA,NA,"{""ma_think_through"":6,""ma_outcomes_matter"":5,""ma_character_reflective"":4,""ma_gut_feelings"":4,""ma_some_actions_wrong"":2}",byst_scenario_quick,"[1,2,4,0,3]",moral_attitudes,/Users/martincz/GitHub/COGS119/group_wi26_moral_character/analysis/../data/raw_data/p2956xcvuq2_1772139916652.csv,ma_some_actions_wrong,2,21,n/a,FALSE,NA,NA
37960,survey-likert,22,34,278729,p2956xcvuq2,quick,immoral,otter,21,female,NA,NA,"{""ma_think_through"":6,""ma_outcomes_matter"":5,""ma_character_reflective"":4,""ma_gut_feelings"":4,""ma_some_actions_wrong"":2}",byst_scenario_quick,"[1,2,4,0,3]",moral_attitudes,/Users/martincz/GitHub/COGS119/group_wi26_moral_character/analysis/../data/raw_data/p2956xcvuq2_1772139916652.csv,ma_think_through,6,21,n/a,FALSE,NA,NA
41317,survey-likert,6,1,164207,p2pjbvjx0eq,slow,immoral,wallaby,22,female,NA,NA,"{""j_manipulation_check"":6,""n_manipulation_check"":0}",immoral_stimulus_2,"[0,1]",manipulation_check,/Users/martincz/GitHub/COGS119/group_wi26_moral_character/analysis/../data/raw_data/p2pjbvjx0eq_1772139864103.csv,j_manipulation_check,6,22,I think this experiment was about moral judgment,FALSE,j,fast
41317,survey-likert,6,2,164207,p2pjbvjx0eq,slow,immoral,wallaby,22,female,NA,NA,"{""j_manipulation_check"":6,""n_manipulation_check"":0}",immoral_stimulus_2,"[0,1]",manipulation_check,/Users/martincz/GitHub/COGS119/group_wi26_moral_character/analysis/../data/raw_data/p2pjbvjx0eq_1772139864103.csv,n_manipulation_check,0,22,I think this experiment was about moral judgment,FALSE,n,slow
75732,survey-likert,7,3,239941,p2pjbvjx0eq,slow,immoral,wallaby,22,female,NA,NA,"{""n_principles_eval"":2,""j_principles_eval"":0}",immoral_stimulus_2,"[1,0]",principles,/Users/martincz/GitHub/COGS119/group_wi26_moral_character/analysis/../data/raw_data/p2pjbvjx0eq_1772139864103.csv,n_principles_eval,2,22,I think this experiment was about moral judgment,FALSE,n,slow
75732,survey-likert,7,4,239941,p2pjbvjx0eq,slow,immoral,wallaby,22,female,NA,NA,"{""n_principles_eval"":2,""j_principles_eval"":0}",immoral_stimulus_2,"[1,0]",principles,/Users/martincz/GitHub/COGS119/group_wi26_moral_character/analysis/../data/raw_data/p2pjbvjx0eq_1772139864103.csv,j_principles_eval,0,22,I think this experiment was about moral judgment,FALSE,j,fast
51932,survey-likert,8,5,291867,p2pjbvjx0eq,slow,immoral,wallaby,22,female,NA,NA,"{""j_standards_eval"":0,""n_standards_eval"":2}",immoral_stimulus_2,"[0,1]",standards,/Users/martincz/GitHub/COGS119/group_wi26_moral_character/analysis/../data/raw_data/p2pjbvjx0eq_1772139864103.csv,n_standards_eval,2,22,I think this experiment was about moral judgment,FALSE,n,slow
51932,survey-likert,8,6,291867,p2pjbvjx0eq,slow,immoral,wallaby,22,female,NA,NA,"{""j_standards_eval"":0,""n_standards_eval"":2}",immoral_stimulus_2,"[0,1]",standards,/Users/martincz/GitHub/COGS119/group_wi26_moral_character/analysis/../data/raw_data/p2pjbvjx0eq_1772139864103.csv,j_standards_eval,0,22,I think this experiment was about moral judgment,FALSE,j,fast
49515,survey-likert,9,7,341365,p2pjbvjx0eq,slow,immoral,wallaby,22,female,NA,NA,"{""n_deepness_eval"":3,""j_deepness_eval"":0}",immoral_stimulus_2,"[1,0]",depth,/Users/martincz/GitHub/COGS119/group_wi26_moral_character/analysis/../data/raw_data/p2pjbvjx0eq_1772139864103.csv,n_deepness_eval,3,22,I think this experiment was about moral judgment,FALSE,n,slow
49515,survey-likert,9,8,341365,p2pjbvjx0eq,slow,immoral,wallaby,22,female,NA,NA,"{""n_deepness_eval"":3,""j_deepness_eval"":0}",immoral_stimulus_2,"[1,0]",depth,/Users/martincz/GitHub/COGS119/group_wi26_moral_character/analysis/../data/raw_data/p2pjbvjx0eq_1772139864103.csv,j_deepness_eval,0,22,I think this experiment was about moral judgment,FALSE,j,fast
53733,survey-likert,10,9,395099,p2pjbvjx0eq,slow,immoral,wallaby,22,female,NA,NA,"{""j_cert_conflicted_RS"":0,""n_cert_conflicted_RS"":5,""j_cert_reservations_RS"":0,""n_cert_reservations_RS"":5}",immoral_stimulus_2,"[0,1,2,3]",certainty,/Users/martincz/GitHub/COGS119/group_wi26_moral_character/analysis/../data/raw_data/p2pjbvjx0eq_1772139864103.csv,j_cert_conflicted_RS,0,22,I think this experiment was about moral judgment,FALSE,j,fast
53733,survey-likert,10,10,395099,p2pjbvjx0eq,slow,immoral,wallaby,22,female,NA,NA,"{""j_cert_conflicted_RS"":0,""n_cert_conflicted_RS"":5,""j_cert_reservations_RS"":0,""n_cert_reservations_RS"":5}",immoral_stimulus_2,"[0,1,2,3]",certainty,/Users/martincz/GitHub/COGS119/group_wi26_moral_character/analysis/../data/raw_data/p2pjbvjx0eq_1772139864103.csv,n_cert_conflicted_RS,5,22,I think this experiment was about moral judgment,FALSE,n,slow
53733,survey-likert,10,11,395099,p2pjbvjx0eq,slow,immoral,wallaby,22,female,NA,NA,"{""j_cert_conflicted_RS"":0,""n_cert_conflicted_RS"":5,""j_cert_reservations_RS"":0,""n_cert_reservations_RS"":5}",immoral_stimulus_2,"[0,1,2,3]",certainty,/Users/martincz/GitHub/COGS119/group_wi26_moral_character/analysis/../data/raw_data/p2pjbvjx0eq_1772139864103.csv,j_cert_reservations_RS,0,22,I think this experiment was about moral judgment,FALSE,j,fast
53733,survey-likert,10,12,395099,p2pjbvjx0eq,slow,immoral,wallaby,22,female,NA,NA,"{""j_cert_conflicted_RS"":0,""n_cert_conflicted_RS"":5,""j_cert_reservations_RS"":0,""n_cert_reservations_RS"":5}",immoral_stimulus_2,"[0,1,2,3]",certainty,/Users/martincz/GitHub/COGS119/group_wi26_moral_character/analysis/../data/raw_data/p2pjbvjx0eq_1772139864103.csv,n_cert_reservations_RS,5,22,I think this experiment was about moral judgment,FALSE,n,slow
152566,survey-likert,11,13,547663,p2pjbvjx0eq,slow,immoral,wallaby,22,female,NA,NA,"{""j_cert_quite_certain"":6,""n_cert_quite_certain"":0,""j_cert_far_from_alternative"":6,""n_cert_far_from_alternative"":1}",immoral_stimulus_2,"[0,1,2,3]",certainty,/Users/martincz/GitHub/COGS119/group_wi26_moral_character/analysis/../data/raw_data/p2pjbvjx0eq_1772139864103.csv,j_cert_quite_certain,6,22,I think this experiment was about moral judgment,FALSE,j,fast
152566,survey-likert,11,14,547663,p2pjbvjx0eq,slow,immoral,wallaby,22,female,NA,NA,"{""j_cert_quite_certain"":6,""n_cert_quite_certain"":0,""j_cert_far_from_alternative"":6,""n_cert_far_from_alternative"":1}",immoral_stimulus_2,"[0,1,2,3]",certainty,/Users/martincz/GitHub/COGS119/group_wi26_moral_character/analysis/../data/raw_data/p2pjbvjx0eq_1772139864103.csv,n_cert_quite_certain,0,22,I think this experiment was about moral judgment,FALSE,n,slow
152566,survey-likert,11,15,547663,p2pjbvjx0eq,slow,immoral,wallaby,22,female,NA,NA,"{""j_cert_quite_certain"":6,""n_cert_quite_certain"":0,""j_cert_far_from_alternative"":6,""n_cert_far_from_alternative"":1}",immoral_stimulus_2,"[0,1,2,3]",certainty,/Users/martincz/GitHub/COGS119/group_wi26_moral_character/analysis/../data/raw_data/p2pjbvjx0eq_1772139864103.csv,j_cert_far_from_alternative,6,22,I think this experiment was about moral judgment,FALSE,j,fast
152566,survey-likert,11,16,547663,p2pjbvjx0eq,slow,immoral,wallaby,22,female,NA,NA,"{""j_cert_quite_certain"":6,""n_cert_quite_certain"":0,""j_cert_far_from_alternative"":6,""n_cert_far_from_alternative"":1}",immoral_stimulus_2,"[0,1,2,3]",certainty,/Users/martincz/GitHub/COGS119/group_wi26_moral_character/analysis/../data/raw_data/p2pjbvjx0eq_1772139864103.csv,n_cert_far_from_alternative,1,22,I think this experiment was about moral judgment,FALSE,n,slow
60033,survey-likert,12,17,607697,p2pjbvjx0eq,slow,immoral,wallaby,22,female,NA,NA,"{""j_imp_calm_contained_RS"":6,""n_imp_calm_contained_RS"":0,""j_imp_upset_acted_without_thinking"":0,""n_imp_upset_acted_without_thinking"":6}",immoral_stimulus_2,"[0,1,2,3]",emotional_impulsivity,/Users/martincz/GitHub/COGS119/group_wi26_moral_character/analysis/../data/raw_data/p2pjbvjx0eq_1772139864103.csv,j_imp_calm_contained_RS,6,22,I think this experiment was about moral judgment,FALSE,j,fast
60033,survey-likert,12,18,607697,p2pjbvjx0eq,slow,immoral,wallaby,22,female,NA,NA,"{""j_imp_calm_contained_RS"":6,""n_imp_calm_contained_RS"":0,""j_imp_upset_acted_without_thinking"":0,""n_imp_upset_acted_without_thinking"":6}",immoral_stimulus_2,"[0,1,2,3]",emotional_impulsivity,/Users/martincz/GitHub/COGS119/group_wi26_moral_character/analysis/../data/raw_data/p2pjbvjx0eq_1772139864103.csv,n_imp_calm_contained_RS,0,22,I think this experiment was about moral judgment,FALSE,n,slow
60033,survey-likert,12,19,607697,p2pjbvjx0eq,slow,immoral,wallaby,22,female,NA,NA,"{""j_imp_calm_contained_RS"":6,""n_imp_calm_contained_RS"":0,""j_imp_upset_acted_without_thinking"":0,""n_imp_upset_acted_without_thinking"":6}",immoral_stimulus_2,"[0,1,2,3]",emotional_impulsivity,/Users/martincz/GitHub/COGS119/group_wi26_moral_character/analysis/../data/raw_data/p2pjbvjx0eq_1772139864103.csv,j_imp_upset_acted_without_thinking,0,22,I think this experiment was about moral judgment,FALSE,j,fast
60033,survey-likert,12,20,607697,p2pjbvjx0eq,slow,immoral,wallaby,22,female,NA,NA,"{""j_imp_calm_contained_RS"":6,""n_imp_calm_contained_RS"":0,""j_imp_upset_acted_without_thinking"":0,""n_imp_upset_acted_without_thinking"":6}",immoral_stimulus_2,"[0,1,2,3]",emotional_impulsivity,/Users/martincz/GitHub/COGS119/group_wi26_moral_character/analysis/../data/raw_data/p2pjbvjx0eq_1772139864103.csv,n_imp_upset_acted_without_thinking,6,22,I think this experiment was about moral judgment,FALSE,n,slow
18316,survey-likert,15,21,752680,p2pjbvjx0eq,slow,immoral,wallaby,22,female,NA,NA,"{""b_standards_eval"":5}",byst_scenario_slow,[0],byst_standards,/Users/martincz/GitHub/COGS119/group_wi26_moral_character/analysis/../data/raw_data/p2pjbvjx0eq_1772139864103.csv,b_standards_eval,5,22,I think this experiment was about moral judgment,FALSE,b,bystander
7480,survey-likert,16,22,760161,p2pjbvjx0eq,slow,immoral,wallaby,22,female,NA,NA,"{""b_principles_eval"":5}",byst_scenario_slow,[0],byst_principles,/Users/martincz/GitHub/COGS119/group_wi26_moral_character/analysis/../data/raw_data/p2pjbvjx0eq_1772139864103.csv,b_principles_eval,5,22,I think this experiment was about moral judgment,FALSE,b,bystander
31282,survey-likert,17,23,791445,p2pjbvjx0eq,slow,immoral,wallaby,22,female,NA,NA,"{""b_deepness_eval"":6}",byst_scenario_slow,[0],byst_depth,/Users/martincz/GitHub/COGS119/group_wi26_moral_character/analysis/../data/raw_data/p2pjbvjx0eq_1772139864103.csv,b_deepness_eval,6,22,I think this experiment was about moral judgment,FALSE,b,bystander
38633,survey-likert,18,24,830079,p2pjbvjx0eq,slow,immoral,wallaby,22,female,NA,NA,"{""b_imp_upset_acted_without_thinking"":0,""b_imp_calm_contained_RS"":6}",byst_scenario_slow,"[1,0]",byst_emotional_impulsivity,/Users/martincz/GitHub/COGS119/group_wi26_moral_character/analysis/../data/raw_data/p2pjbvjx0eq_1772139864103.csv,b_imp_calm_contained_RS,6,22,I think this experiment was about moral judgment,FALSE,b,bystander
38633,survey-likert,18,25,830079,p2pjbvjx0eq,slow,immoral,wallaby,22,female,NA,NA,"{""b_imp_upset_acted_without_thinking"":0,""b_imp_calm_contained_RS"":6}",byst_scenario_slow,"[1,0]",byst_emotional_impulsivity,/Users/martincz/GitHub/COGS119/group_wi26_moral_character/analysis/../data/raw_data/p2pjbvjx0eq_1772139864103.csv,b_imp_upset_acted_without_thinking,0,22,I think this experiment was about moral judgment,FALSE,b,bystander
30398,survey-likert,19,26,860478,p2pjbvjx0eq,slow,immoral,wallaby,22,female,NA,NA,"{""B_cert_reservations_RS"":6,""B_cert_far_from_alternative"":0,""B_cert_quite_certain"":0,""B_cert_conflicted_RS"":6}",byst_scenario_slow,"[1,3,2,0]",byst_certainty,/Users/martincz/GitHub/COGS119/group_wi26_moral_character/analysis/../data/raw_data/p2pjbvjx0eq_1772139864103.csv,B_cert_conflicted_RS,6,22,I think this experiment was about moral judgment,FALSE,b,bystander
30398,survey-likert,19,27,860478,p2pjbvjx0eq,slow,immoral,wallaby,22,female,NA,NA,"{""B_cert_reservations_RS"":6,""B_cert_far_from_alternative"":0,""B_cert_quite_certain"":0,""B_cert_conflicted_RS"":6}",byst_scenario_slow,"[1,3,2,0]",byst_certainty,/Users/martincz/GitHub/COGS119/group_wi26_moral_character/analysis/../data/raw_data/p2pjbvjx0eq_1772139864103.csv,B_cert_quite_certain,0,22,I think this experiment was about moral judgment,FALSE,b,bystander
30398,survey-likert,19,28,860478,p2pjbvjx0eq,slow,immoral,wallaby,22,female,NA,NA,"{""B_cert_reservations_RS"":6,""B_cert_far_from_alternative"":0,""B_cert_quite_certain"":0,""B_cert_conflicted_RS"":6}",byst_scenario_slow,"[1,3,2,0]",byst_certainty,/Users/martincz/GitHub/COGS119/group_wi26_moral_character/analysis/../data/raw_data/p2pjbvjx0eq_1772139864103.csv,B_cert_far_from_alternative,0,22,I think this experiment was about moral judgment,FALSE,b,bystander
30398,survey-likert,19,29,860478,p2pjbvjx0eq,slow,immoral,wallaby,22,female,NA,NA,"{""B_cert_reservations_RS"":6,""B_cert_far_from_alternative"":0,""B_cert_quite_certain"":0,""B_cert_conflicted_RS"":6}",byst_scenario_slow,"[1,3,2,0]",byst_certainty,/Users/martincz/GitHub/COGS119/group_wi26_moral_character/analysis/../data/raw_data/p2pjbvjx0eq_1772139864103.csv,B_cert_reservations_RS,6,22,I think this experiment was about moral judgment,FALSE,b,bystander
51482,survey-likert,22,30,920561,p2pjbvjx0eq,slow,immoral,wallaby,22,female,NA,NA,"{""ma_character_reflective"":5,""ma_gut_feelings"":4,""ma_think_through"":6,""ma_some_actions_wrong"":5,""ma_outcomes_matter"":1}",byst_scenario_slow,"[4,0,1,3,2]",moral_attitudes,/Users/martincz/GitHub/COGS119/group_wi26_moral_character/analysis/../data/raw_data/p2pjbvjx0eq_1772139864103.csv,ma_gut_feelings,4,22,I think this experiment was about moral judgment,FALSE,NA,NA
51482,survey-likert,22,31,920561,p2pjbvjx0eq,slow,immoral,wallaby,22,female,NA,NA,"{""ma_character_reflective"":5,""ma_gut_feelings"":4,""ma_think_through"":6,""ma_some_actions_wrong"":5,""ma_outcomes_matter"":1}",byst_scenario_slow,"[4,0,1,3,2]",moral_attitudes,/Users/martincz/GitHub/COGS119/group_wi26_moral_character/analysis/../data/raw_data/p2pjbvjx0eq_1772139864103.csv,ma_character_reflective,5,22,I think this experiment was about moral judgment,FALSE,NA,NA
51482,survey-likert,22,32,920561,p2pjbvjx0eq,slow,immoral,wallaby,22,female,NA,NA,"{""ma_character_reflective"":5,""ma_gut_feelings"":4,""ma_think_through"":6,""ma_some_actions_wrong"":5,""ma_outcomes_matter"":1}",byst_scenario_slow,"[4,0,1,3,2]",moral_attitudes,/Users/martincz/GitHub/COGS119/group_wi26_moral_character/analysis/../data/raw_data/p2pjbvjx0eq_1772139864103.csv,ma_outcomes_matter,1,22,I think this experiment was about moral judgment,FALSE,NA,NA
51482,survey-likert,22,33,920561,p2pjbvjx0eq,slow,immoral,wallaby,22,female,NA,NA,"{""ma_character_reflective"":5,""ma_gut_feelings"":4,""ma_think_through"":6,""ma_some_actions_wrong"":5,""ma_outcomes_matter"":1}",byst_scenario_slow,"[4,0,1,3,2]",moral_attitudes,/Users/martincz/GitHub/COGS119/group_wi26_moral_character/analysis/../data/raw_data/p2pjbvjx0eq_1772139864103.csv,ma_some_actions_wrong,5,22,I think this experiment was about moral judgment,FALSE,NA,NA
51482,survey-likert,22,34,920561,p2pjbvjx0eq,slow,immoral,wallaby,22,female,NA,NA,"{""ma_character_reflective"":5,""ma_gut_feelings"":4,""ma_think_through"":6,""ma_some_actions_wrong"":5,""ma_outcomes_matter"":1}",byst_scenario_slow,"[4,0,1,3,2]",moral_attitudes,/Users/martincz/GitHub/COGS119/group_wi26_moral_character/analysis/../data/raw_data/p2pjbvjx0eq_1772139864103.csv,ma_think_through,6,22,I think this experiment was about moral judgment,FALSE,NA,NA
10814,survey-likert,6,1,51235,p4732xl89nm,quick,immoral,goose,22,male,NA,NA,"{""j_manipulation_check"":6,""n_manipulation_check"":0}",immoral_stimulus_1,"[0,1]",manipulation_check,/Users/martincz/GitHub/COGS119/group_wi26_moral_character/analysis/../data/raw_data/p4732xl89nm_1772138110646.csv,j_manipulation_check,6,22,something about rating morality from people's actions. One condition with J and N sees if another person's action can affect how moral they are perceived. No issues. Spotted some punctuation errors,FALSE,j,fast
10814,survey-likert,6,2,51235,p4732xl89nm,quick,immoral,goose,22,male,NA,NA,"{""j_manipulation_check"":6,""n_manipulation_check"":0}",immoral_stimulus_1,"[0,1]",manipulation_check,/Users/martincz/GitHub/COGS119/group_wi26_moral_character/analysis/../data/raw_data/p4732xl89nm_1772138110646.csv,n_manipulation_check,0,22,something about rating morality from people's actions. One condition with J and N sees if another person's action can affect how moral they are perceived. No issues. Spotted some punctuation errors,FALSE,n,slow
29147,survey-likert,7,3,80387,p4732xl89nm,quick,immoral,goose,22,male,NA,NA,"{""n_principles_eval"":2,""j_principles_eval"":1}",immoral_stimulus_1,"[1,0]",principles,/Users/martincz/GitHub/COGS119/group_wi26_moral_character/analysis/../data/raw_data/p4732xl89nm_1772138110646.csv,n_principles_eval,2,22,something about rating morality from people's actions. One condition with J and N sees if another person's action can affect how moral they are perceived. No issues. Spotted some punctuation errors,FALSE,n,slow
29147,survey-likert,7,4,80387,p4732xl89nm,quick,immoral,goose,22,male,NA,NA,"{""n_principles_eval"":2,""j_principles_eval"":1}",immoral_stimulus_1,"[1,0]",principles,/Users/martincz/GitHub/COGS119/group_wi26_moral_character/analysis/../data/raw_data/p4732xl89nm_1772138110646.csv,j_principles_eval,1,22,something about rating morality from people's actions. One condition with J and N sees if another person's action can affect how moral they are perceived. No issues. Spotted some punctuation errors,FALSE,j,fast
18079,survey-likert,8,5,98470,p4732xl89nm,quick,immoral,goose,22,male,NA,NA,"{""j_standards_eval"":1,""n_standards_eval"":5}",immoral_stimulus_1,"[0,1]",standards,/Users/martincz/GitHub/COGS119/group_wi26_moral_character/analysis/../data/raw_data/p4732xl89nm_1772138110646.csv,n_standards_eval,5,22,something about rating morality from people's actions. One condition with J and N sees if another person's action can affect how moral they are perceived. No issues. Spotted some punctuation errors,FALSE,n,slow
18079,survey-likert,8,6,98470,p4732xl89nm,quick,immoral,goose,22,male,NA,NA,"{""j_standards_eval"":1,""n_standards_eval"":5}",immoral_stimulus_1,"[0,1]",standards,/Users/martincz/GitHub/COGS119/group_wi26_moral_character/analysis/../data/raw_data/p4732xl89nm_1772138110646.csv,j_standards_eval,1,22,something about rating morality from people's actions. One condition with J and N sees if another person's action can affect how moral they are perceived. No issues. Spotted some punctuation errors,FALSE,j,fast
15044,survey-likert,9,7,113519,p4732xl89nm,quick,immoral,goose,22,male,NA,NA,"{""j_deepness_eval"":0,""n_deepness_eval"":4}",immoral_stimulus_1,"[0,1]",depth,/Users/martincz/GitHub/COGS119/group_wi26_moral_character/analysis/../data/raw_data/p4732xl89nm_1772138110646.csv,n_deepness_eval,4,22,something about rating morality from people's actions. One condition with J and N sees if another person's action can affect how moral they are perceived. No issues. Spotted some punctuation errors,FALSE,n,slow
15044,survey-likert,9,8,113519,p4732xl89nm,quick,immoral,goose,22,male,NA,NA,"{""j_deepness_eval"":0,""n_deepness_eval"":4}",immoral_stimulus_1,"[0,1]",depth,/Users/martincz/GitHub/COGS119/group_wi26_moral_character/analysis/../data/raw_data/p4732xl89nm_1772138110646.csv,j_deepness_eval,0,22,something about rating morality from people's actions. One condition with J and N sees if another person's action can affect how moral they are perceived. No issues. Spotted some punctuation errors,FALSE,j,fast
21630,survey-likert,10,9,135155,p4732xl89nm,quick,immoral,goose,22,male,NA,NA,"{""j_cert_conflicted_RS"":0,""n_cert_conflicted_RS"":5,""j_cert_reservations_RS"":0,""n_cert_reservations_RS"":5}",immoral_stimulus_1,"[0,1,2,3]",certainty,/Users/martincz/GitHub/COGS119/group_wi26_moral_character/analysis/../data/raw_data/p4732xl89nm_1772138110646.csv,j_cert_conflicted_RS,0,22,something about rating morality from people's actions. One condition with J and N sees if another person's action can affect how moral they are perceived. No issues. Spotted some punctuation errors,FALSE,j,fast
21630,survey-likert,10,10,135155,p4732xl89nm,quick,immoral,goose,22,male,NA,NA,"{""j_cert_conflicted_RS"":0,""n_cert_conflicted_RS"":5,""j_cert_reservations_RS"":0,""n_cert_reservations_RS"":5}",immoral_stimulus_1,"[0,1,2,3]",certainty,/Users/martincz/GitHub/COGS119/group_wi26_moral_character/analysis/../data/raw_data/p4732xl89nm_1772138110646.csv,n_cert_conflicted_RS,5,22,something about rating morality from people's actions. One condition with J and N sees if another person's action can affect how moral they are perceived. No issues. Spotted some punctuation errors,FALSE,n,slow
21630,survey-likert,10,11,135155,p4732xl89nm,quick,immoral,goose,22,male,NA,NA,"{""j_cert_conflicted_RS"":0,""n_cert_conflicted_RS"":5,""j_cert_reservations_RS"":0,""n_cert_reservations_RS"":5}",immoral_stimulus_1,"[0,1,2,3]",certainty,/Users/martincz/GitHub/COGS119/group_wi26_moral_character/analysis/../data/raw_data/p4732xl89nm_1772138110646.csv,j_cert_reservations_RS,0,22,something about rating morality from people's actions. One condition with J and N sees if another person's action can affect how moral they are perceived. No issues. Spotted some punctuation errors,FALSE,j,fast
21630,survey-likert,10,12,135155,p4732xl89nm,quick,immoral,goose,22,male,NA,NA,"{""j_cert_conflicted_RS"":0,""n_cert_conflicted_RS"":5,""j_cert_reservations_RS"":0,""n_cert_reservations_RS"":5}",immoral_stimulus_1,"[0,1,2,3]",certainty,/Users/martincz/GitHub/COGS119/group_wi26_moral_character/analysis/../data/raw_data/p4732xl89nm_1772138110646.csv,n_cert_reservations_RS,5,22,something about rating morality from people's actions. One condition with J and N sees if another person's action can affect how moral they are perceived. No issues. Spotted some punctuation errors,FALSE,n,slow
29493,survey-likert,11,13,164653,p4732xl89nm,quick,immoral,goose,22,male,NA,NA,"{""j_cert_quite_certain"":6,""n_cert_quite_certain"":2,""j_cert_far_from_alternative"":6,""n_cert_far_from_alternative"":2}",immoral_stimulus_1,"[0,1,2,3]",certainty,/Users/martincz/GitHub/COGS119/group_wi26_moral_character/analysis/../data/raw_data/p4732xl89nm_1772138110646.csv,j_cert_quite_certain,6,22,something about rating morality from people's actions. One condition with J and N sees if another person's action can affect how moral they are perceived. No issues. Spotted some punctuation errors,FALSE,j,fast
29493,survey-likert,11,14,164653,p4732xl89nm,quick,immoral,goose,22,male,NA,NA,"{""j_cert_quite_certain"":6,""n_cert_quite_certain"":2,""j_cert_far_from_alternative"":6,""n_cert_far_from_alternative"":2}",immoral_stimulus_1,"[0,1,2,3]",certainty,/Users/martincz/GitHub/COGS119/group_wi26_moral_character/analysis/../data/raw_data/p4732xl89nm_1772138110646.csv,n_cert_quite_certain,2,22,something about rating morality from people's actions. One condition with J and N sees if another person's action can affect how moral they are perceived. No issues. Spotted some punctuation errors,FALSE,n,slow
29493,survey-likert,11,15,164653,p4732xl89nm,quick,immoral,goose,22,male,NA,NA,"{""j_cert_quite_certain"":6,""n_cert_quite_certain"":2,""j_cert_far_from_alternative"":6,""n_cert_far_from_alternative"":2}",immoral_stimulus_1,"[0,1,2,3]",certainty,/Users/martincz/GitHub/COGS119/group_wi26_moral_character/analysis/../data/raw_data/p4732xl89nm_1772138110646.csv,j_cert_far_from_alternative,6,22,something about rating morality from people's actions. One condition with J and N sees if another person's action can affect how moral they are perceived. No issues. Spotted some punctuation errors,FALSE,j,fast
29493,survey-likert,11,16,164653,p4732xl89nm,quick,immoral,goose,22,male,NA,NA,"{""j_cert_quite_certain"":6,""n_cert_quite_certain"":2,""j_cert_far_from_alternative"":6,""n_cert_far_from_alternative"":2}",immoral_stimulus_1,"[0,1,2,3]",certainty,/Users/martincz/GitHub/COGS119/group_wi26_moral_character/analysis/../data/raw_data/p4732xl89nm_1772138110646.csv,n_cert_far_from_alternative,2,22,something about rating morality from people's actions. One condition with J and N sees if another person's action can affect how moral they are perceived. No issues. Spotted some punctuation errors,FALSE,n,slow
14029,survey-likert,12,17,178686,p4732xl89nm,quick,immoral,goose,22,male,NA,NA,"{""j_imp_calm_contained_RS"":6,""n_imp_calm_contained_RS"":2,""j_imp_upset_acted_without_thinking"":0,""n_imp_upset_acted_without_thinking"":3}",immoral_stimulus_1,"[0,1,2,3]",emotional_impulsivity,/Users/martincz/GitHub/COGS119/group_wi26_moral_character/analysis/../data/raw_data/p4732xl89nm_1772138110646.csv,j_imp_calm_contained_RS,6,22,something about rating morality from people's actions. One condition with J and N sees if another person's action can affect how moral they are perceived. No issues. Spotted some punctuation errors,FALSE,j,fast
14029,survey-likert,12,18,178686,p4732xl89nm,quick,immoral,goose,22,male,NA,NA,"{""j_imp_calm_contained_RS"":6,""n_imp_calm_contained_RS"":2,""j_imp_upset_acted_without_thinking"":0,""n_imp_upset_acted_without_thinking"":3}",immoral_stimulus_1,"[0,1,2,3]",emotional_impulsivity,/Users/martincz/GitHub/COGS119/group_wi26_moral_character/analysis/../data/raw_data/p4732xl89nm_1772138110646.csv,n_imp_calm_contained_RS,2,22,something about rating morality from people's actions. One condition with J and N sees if another person's action can affect how moral they are perceived. No issues. Spotted some punctuation errors,FALSE,n,slow
14029,survey-likert,12,19,178686,p4732xl89nm,quick,immoral,goose,22,male,NA,NA,"{""j_imp_calm_contained_RS"":6,""n_imp_calm_contained_RS"":2,""j_imp_upset_acted_without_thinking"":0,""n_imp_upset_acted_without_thinking"":3}",immoral_stimulus_1,"[0,1,2,3]",emotional_impulsivity,/Users/martincz/GitHub/COGS119/group_wi26_moral_character/analysis/../data/raw_data/p4732xl89nm_1772138110646.csv,j_imp_upset_acted_without_thinking,0,22,something about rating morality from people's actions. One condition with J and N sees if another person's action can affect how moral they are perceived. No issues. Spotted some punctuation errors,FALSE,j,fast
14029,survey-likert,12,20,178686,p4732xl89nm,quick,immoral,goose,22,male,NA,NA,"{""j_imp_calm_contained_RS"":6,""n_imp_calm_contained_RS"":2,""j_imp_upset_acted_without_thinking"":0,""n_imp_upset_acted_without_thinking"":3}",immoral_stimulus_1,"[0,1,2,3]",emotional_impulsivity,/Users/martincz/GitHub/COGS119/group_wi26_moral_character/analysis/../data/raw_data/p4732xl89nm_1772138110646.csv,n_imp_upset_acted_without_thinking,3,22,something about rating morality from people's actions. One condition with J and N sees if another person's action can affect how moral they are perceived. No issues. Spotted some punctuation errors,FALSE,n,slow
12647,survey-likert,15,21,211538,p4732xl89nm,quick,immoral,goose,22,male,NA,NA,"{""b_principles_eval"":6}",byst_scenario_quick,[0],byst_principles,/Users/martincz/GitHub/COGS119/group_wi26_moral_character/analysis/../data/raw_data/p4732xl89nm_1772138110646.csv,b_principles_eval,6,22,something about rating morality from people's actions. One condition with J and N sees if another person's action can affect how moral they are perceived. No issues. Spotted some punctuation errors,FALSE,b,bystander
4394,survey-likert,16,22,215936,p4732xl89nm,quick,immoral,goose,22,male,NA,NA,"{""b_standards_eval"":6}",byst_scenario_quick,[0],byst_standards,/Users/martincz/GitHub/COGS119/group_wi26_moral_character/analysis/../data/raw_data/p4732xl89nm_1772138110646.csv,b_standards_eval,6,22,something about rating morality from people's actions. One condition with J and N sees if another person's action can affect how moral they are perceived. No issues. Spotted some punctuation errors,FALSE,b,bystander
8614,survey-likert,17,23,224555,p4732xl89nm,quick,immoral,goose,22,male,NA,NA,"{""b_deepness_eval"":6}",byst_scenario_quick,[0],byst_depth,/Users/martincz/GitHub/COGS119/group_wi26_moral_character/analysis/../data/raw_data/p4732xl89nm_1772138110646.csv,b_deepness_eval,6,22,something about rating morality from people's actions. One condition with J and N sees if another person's action can affect how moral they are perceived. No issues. Spotted some punctuation errors,FALSE,b,bystander
19344,survey-likert,18,24,243904,p4732xl89nm,quick,immoral,goose,22,male,NA,NA,"{""B_cert_quite_certain"":6,""B_cert_reservations_RS"":0,""B_cert_far_from_alternative"":6,""B_cert_conflicted_RS"":0}",byst_scenario_quick,"[2,1,3,0]",byst_certainty,/Users/martincz/GitHub/COGS119/group_wi26_moral_character/analysis/../data/raw_data/p4732xl89nm_1772138110646.csv,B_cert_conflicted_RS,0,22,something about rating morality from people's actions. One condition with J and N sees if another person's action can affect how moral they are perceived. No issues. Spotted some punctuation errors,FALSE,b,bystander
19344,survey-likert,18,25,243904,p4732xl89nm,quick,immoral,goose,22,male,NA,NA,"{""B_cert_quite_certain"":6,""B_cert_reservations_RS"":0,""B_cert_far_from_alternative"":6,""B_cert_conflicted_RS"":0}",byst_scenario_quick,"[2,1,3,0]",byst_certainty,/Users/martincz/GitHub/COGS119/group_wi26_moral_character/analysis/../data/raw_data/p4732xl89nm_1772138110646.csv,B_cert_quite_certain,6,22,something about rating morality from people's actions. One condition with J and N sees if another person's action can affect how moral they are perceived. No issues. Spotted some punctuation errors,FALSE,b,bystander
19344,survey-likert,18,26,243904,p4732xl89nm,quick,immoral,goose,22,male,NA,NA,"{""B_cert_quite_certain"":6,""B_cert_reservations_RS"":0,""B_cert_far_from_alternative"":6,""B_cert_conflicted_RS"":0}",byst_scenario_quick,"[2,1,3,0]",byst_certainty,/Users/martincz/GitHub/COGS119/group_wi26_moral_character/analysis/../data/raw_data/p4732xl89nm_1772138110646.csv,B_cert_far_from_alternative,6,22,something about rating morality from people's actions. One condition with J and N sees if another person's action can affect how moral they are perceived. No issues. Spotted some punctuation errors,FALSE,b,bystander
19344,survey-likert,18,27,243904,p4732xl89nm,quick,immoral,goose,22,male,NA,NA,"{""B_cert_quite_certain"":6,""B_cert_reservations_RS"":0,""B_cert_far_from_alternative"":6,""B_cert_conflicted_RS"":0}",byst_scenario_quick,"[2,1,3,0]",byst_certainty,/Users/martincz/GitHub/COGS119/group_wi26_moral_character/analysis/../data/raw_data/p4732xl89nm_1772138110646.csv,B_cert_reservations_RS,0,22,something about rating morality from people's actions. One condition with J and N sees if another person's action can affect how moral they are perceived. No issues. Spotted some punctuation errors,FALSE,b,bystander
6529,survey-likert,19,28,250437,p4732xl89nm,quick,immoral,goose,22,male,NA,NA,"{""b_imp_calm_contained_RS"":6,""b_imp_upset_acted_without_thinking"":0}",byst_scenario_quick,"[0,1]",byst_emotional_impulsivity,/Users/martincz/GitHub/COGS119/group_wi26_moral_character/analysis/../data/raw_data/p4732xl89nm_1772138110646.csv,b_imp_calm_contained_RS,6,22,something about rating morality from people's actions. One condition with J and N sees if another person's action can affect how moral they are perceived. No issues. Spotted some punctuation errors,FALSE,b,bystander
6529,survey-likert,19,29,250437,p4732xl89nm,quick,immoral,goose,22,male,NA,NA,"{""b_imp_calm_contained_RS"":6,""b_imp_upset_acted_without_thinking"":0}",byst_scenario_quick,"[0,1]",byst_emotional_impulsivity,/Users/martincz/GitHub/COGS119/group_wi26_moral_character/analysis/../data/raw_data/p4732xl89nm_1772138110646.csv,b_imp_upset_acted_without_thinking,0,22,something about rating morality from people's actions. One condition with J and N sees if another person's action can affect how moral they are perceived. No issues. Spotted some punctuation errors,FALSE,b,bystander
53244,survey-likert,22,30,308673,p4732xl89nm,quick,immoral,goose,22,male,NA,NA,"{""ma_think_through"":3,""ma_outcomes_matter"":4,""ma_gut_feelings"":6,""ma_some_actions_wrong"":6,""ma_character_reflective"":1}",byst_scenario_quick,"[1,2,0,3,4]",moral_attitudes,/Users/martincz/GitHub/COGS119/group_wi26_moral_character/analysis/../data/raw_data/p4732xl89nm_1772138110646.csv,ma_gut_feelings,6,22,something about rating morality from people's actions. One condition with J and N sees if another person's action can affect how moral they are perceived. No issues. Spotted some punctuation errors,FALSE,NA,NA
53244,survey-likert,22,31,308673,p4732xl89nm,quick,immoral,goose,22,male,NA,NA,"{""ma_think_through"":3,""ma_outcomes_matter"":4,""ma_gut_feelings"":6,""ma_some_actions_wrong"":6,""ma_character_reflective"":1}",byst_scenario_quick,"[1,2,0,3,4]",moral_attitudes,/Users/martincz/GitHub/COGS119/group_wi26_moral_character/analysis/../data/raw_data/p4732xl89nm_1772138110646.csv,ma_character_reflective,1,22,something about rating morality from people's actions. One condition with J and N sees if another person's action can affect how moral they are perceived. No issues. Spotted some punctuation errors,FALSE,NA,NA
53244,survey-likert,22,32,308673,p4732xl89nm,quick,immoral,goose,22,male,NA,NA,"{""ma_think_through"":3,""ma_outcomes_matter"":4,""ma_gut_feelings"":6,""ma_some_actions_wrong"":6,""ma_character_reflective"":1}",byst_scenario_quick,"[1,2,0,3,4]",moral_attitudes,/Users/martincz/GitHub/COGS119/group_wi26_moral_character/analysis/../data/raw_data/p4732xl89nm_1772138110646.csv,ma_outcomes_matter,4,22,something about rating morality from people's actions. One condition with J and N sees if another person's action can affect how moral they are perceived. No issues. Spotted some punctuation errors,FALSE,NA,NA
53244,survey-likert,22,33,308673,p4732xl89nm,quick,immoral,goose,22,male,NA,NA,"{""ma_think_through"":3,""ma_outcomes_matter"":4,""ma_gut_feelings"":6,""ma_some_actions_wrong"":6,""ma_character_reflective"":1}",byst_scenario_quick,"[1,2,0,3,4]",moral_attitudes,/Users/martincz/GitHub/COGS119/group_wi26_moral_character/analysis/../data/raw_data/p4732xl89nm_1772138110646.csv,ma_some_actions_wrong,6,22,something about rating morality from people's actions. One condition with J and N sees if another person's action can affect how moral they are perceived. No issues. Spotted some punctuation errors,FALSE,NA,NA
53244,survey-likert,22,34,308673,p4732xl89nm,quick,immoral,goose,22,male,NA,NA,"{""ma_think_through"":3,""ma_outcomes_matter"":4,""ma_gut_feelings"":6,""ma_some_actions_wrong"":6,""ma_character_reflective"":1}",byst_scenario_quick,"[1,2,0,3,4]",moral_attitudes,/Users/martincz/GitHub/COGS119/group_wi26_moral_character/analysis/../data/raw_data/p4732xl89nm_1772138110646.csv,ma_think_through,3,22,something about rating morality from people's actions. One condition with J and N sees if another person's action can affect how moral they are perceived. No issues. Spotted some punctuation errors,FALSE,NA,NA
7130,survey-likert,6,1,73332,p4s87kqkvfc,slow,immoral,antelope,23,female,NA,NA,"{""j_manipulation_check"":4,""n_manipulation_check"":5}",immoral_stimulus_1,"[0,1]",manipulation_check,/Users/martincz/GitHub/COGS119/group_wi26_moral_character/analysis/../data/raw_data/p4s87kqkvfc_1772141887306.csv,j_manipulation_check,4,23,morality,FALSE,j,fast
7130,survey-likert,6,2,73332,p4s87kqkvfc,slow,immoral,antelope,23,female,NA,NA,"{""j_manipulation_check"":4,""n_manipulation_check"":5}",immoral_stimulus_1,"[0,1]",manipulation_check,/Users/martincz/GitHub/COGS119/group_wi26_moral_character/analysis/../data/raw_data/p4s87kqkvfc_1772141887306.csv,n_manipulation_check,5,23,morality,FALSE,n,slow
8440,survey-likert,7,3,81775,p4s87kqkvfc,slow,immoral,antelope,23,female,NA,NA,"{""j_standards_eval"":6,""n_standards_eval"":4}",immoral_stimulus_1,"[0,1]",standards,/Users/martincz/GitHub/COGS119/group_wi26_moral_character/analysis/../data/raw_data/p4s87kqkvfc_1772141887306.csv,n_standards_eval,4,23,morality,FALSE,n,slow
8440,survey-likert,7,4,81775,p4s87kqkvfc,slow,immoral,antelope,23,female,NA,NA,"{""j_standards_eval"":6,""n_standards_eval"":4}",immoral_stimulus_1,"[0,1]",standards,/Users/martincz/GitHub/COGS119/group_wi26_moral_character/analysis/../data/raw_data/p4s87kqkvfc_1772141887306.csv,j_standards_eval,6,23,morality,FALSE,j,fast
5348,survey-likert,8,5,87126,p4s87kqkvfc,slow,immoral,antelope,23,female,NA,NA,"{""n_principles_eval"":6,""j_principles_eval"":3}",immoral_stimulus_1,"[1,0]",principles,/Users/martincz/GitHub/COGS119/group_wi26_moral_character/analysis/../data/raw_data/p4s87kqkvfc_1772141887306.csv,n_principles_eval,6,23,morality,FALSE,n,slow
5348,survey-likert,8,6,87126,p4s87kqkvfc,slow,immoral,antelope,23,female,NA,NA,"{""n_principles_eval"":6,""j_principles_eval"":3}",immoral_stimulus_1,"[1,0]",principles,/Users/martincz/GitHub/COGS119/group_wi26_moral_character/analysis/../data/raw_data/p4s87kqkvfc_1772141887306.csv,j_principles_eval,3,23,morality,FALSE,j,fast
6239,survey-likert,9,7,93367,p4s87kqkvfc,slow,immoral,antelope,23,female,NA,NA,"{""n_deepness_eval"":6,""j_deepness_eval"":4}",immoral_stimulus_1,"[1,0]",depth,/Users/martincz/GitHub/COGS119/group_wi26_moral_character/analysis/../data/raw_data/p4s87kqkvfc_1772141887306.csv,n_deepness_eval,6,23,morality,FALSE,n,slow
6239,survey-likert,9,8,93367,p4s87kqkvfc,slow,immoral,antelope,23,female,NA,NA,"{""n_deepness_eval"":6,""j_deepness_eval"":4}",immoral_stimulus_1,"[1,0]",depth,/Users/martincz/GitHub/COGS119/group_wi26_moral_character/analysis/../data/raw_data/p4s87kqkvfc_1772141887306.csv,j_deepness_eval,4,23,morality,FALSE,j,fast
20452,survey-likert,10,9,113821,p4s87kqkvfc,slow,immoral,antelope,23,female,NA,NA,"{""j_cert_conflicted_RS"":4,""n_cert_conflicted_RS"":3,""j_cert_reservations_RS"":5,""n_cert_reservations_RS"":6}",immoral_stimulus_1,"[0,1,2,3]",certainty,/Users/martincz/GitHub/COGS119/group_wi26_moral_character/analysis/../data/raw_data/p4s87kqkvfc_1772141887306.csv,j_cert_conflicted_RS,4,23,morality,FALSE,j,fast
20452,survey-likert,10,10,113821,p4s87kqkvfc,slow,immoral,antelope,23,female,NA,NA,"{""j_cert_conflicted_RS"":4,""n_cert_conflicted_RS"":3,""j_cert_reservations_RS"":5,""n_cert_reservations_RS"":6}",immoral_stimulus_1,"[0,1,2,3]",certainty,/Users/martincz/GitHub/COGS119/group_wi26_moral_character/analysis/../data/raw_data/p4s87kqkvfc_1772141887306.csv,n_cert_conflicted_RS,3,23,morality,FALSE,n,slow
20452,survey-likert,10,11,113821,p4s87kqkvfc,slow,immoral,antelope,23,female,NA,NA,"{""j_cert_conflicted_RS"":4,""n_cert_conflicted_RS"":3,""j_cert_reservations_RS"":5,""n_cert_reservations_RS"":6}",immoral_stimulus_1,"[0,1,2,3]",certainty,/Users/martincz/GitHub/COGS119/group_wi26_moral_character/analysis/../data/raw_data/p4s87kqkvfc_1772141887306.csv,j_cert_reservations_RS,5,23,morality,FALSE,j,fast
20452,survey-likert,10,12,113821,p4s87kqkvfc,slow,immoral,antelope,23,female,NA,NA,"{""j_cert_conflicted_RS"":4,""n_cert_conflicted_RS"":3,""j_cert_reservations_RS"":5,""n_cert_reservations_RS"":6}",immoral_stimulus_1,"[0,1,2,3]",certainty,/Users/martincz/GitHub/COGS119/group_wi26_moral_character/analysis/../data/raw_data/p4s87kqkvfc_1772141887306.csv,n_cert_reservations_RS,6,23,morality,FALSE,n,slow
56030,survey-likert,11,13,169854,p4s87kqkvfc,slow,immoral,antelope,23,female,NA,NA,"{""j_cert_quite_certain"":6,""n_cert_quite_certain"":2,""j_cert_far_from_alternative"":3,""n_cert_far_from_alternative"":6}",immoral_stimulus_1,"[0,1,2,3]",certainty,/Users/martincz/GitHub/COGS119/group_wi26_moral_character/analysis/../data/raw_data/p4s87kqkvfc_1772141887306.csv,j_cert_quite_certain,6,23,morality,FALSE,j,fast
56030,survey-likert,11,14,169854,p4s87kqkvfc,slow,immoral,antelope,23,female,NA,NA,"{""j_cert_quite_certain"":6,""n_cert_quite_certain"":2,""j_cert_far_from_alternative"":3,""n_cert_far_from_alternative"":6}",immoral_stimulus_1,"[0,1,2,3]",certainty,/Users/martincz/GitHub/COGS119/group_wi26_moral_character/analysis/../data/raw_data/p4s87kqkvfc_1772141887306.csv,n_cert_quite_certain,2,23,morality,FALSE,n,slow
56030,survey-likert,11,15,169854,p4s87kqkvfc,slow,immoral,antelope,23,female,NA,NA,"{""j_cert_quite_certain"":6,""n_cert_quite_certain"":2,""j_cert_far_from_alternative"":3,""n_cert_far_from_alternative"":6}",immoral_stimulus_1,"[0,1,2,3]",certainty,/Users/martincz/GitHub/COGS119/group_wi26_moral_character/analysis/../data/raw_data/p4s87kqkvfc_1772141887306.csv,j_cert_far_from_alternative,3,23,morality,FALSE,j,fast
56030,survey-likert,11,16,169854,p4s87kqkvfc,slow,immoral,antelope,23,female,NA,NA,"{""j_cert_quite_certain"":6,""n_cert_quite_certain"":2,""j_cert_far_from_alternative"":3,""n_cert_far_from_alternative"":6}",immoral_stimulus_1,"[0,1,2,3]",certainty,/Users/martincz/GitHub/COGS119/group_wi26_moral_character/analysis/../data/raw_data/p4s87kqkvfc_1772141887306.csv,n_cert_far_from_alternative,6,23,morality,FALSE,n,slow
24060,survey-likert,12,17,193918,p4s87kqkvfc,slow,immoral,antelope,23,female,NA,NA,"{""j_imp_calm_contained_RS"":6,""n_imp_calm_contained_RS"":4,""j_imp_upset_acted_without_thinking"":5,""n_imp_upset_acted_without_thinking"":6}",immoral_stimulus_1,"[0,1,2,3]",emotional_impulsivity,/Users/martincz/GitHub/COGS119/group_wi26_moral_character/analysis/../data/raw_data/p4s87kqkvfc_1772141887306.csv,j_imp_calm_contained_RS,6,23,morality,FALSE,j,fast
24060,survey-likert,12,18,193918,p4s87kqkvfc,slow,immoral,antelope,23,female,NA,NA,"{""j_imp_calm_contained_RS"":6,""n_imp_calm_contained_RS"":4,""j_imp_upset_acted_without_thinking"":5,""n_imp_upset_acted_without_thinking"":6}",immoral_stimulus_1,"[0,1,2,3]",emotional_impulsivity,/Users/martincz/GitHub/COGS119/group_wi26_moral_character/analysis/../data/raw_data/p4s87kqkvfc_1772141887306.csv,n_imp_calm_contained_RS,4,23,morality,FALSE,n,slow
24060,survey-likert,12,19,193918,p4s87kqkvfc,slow,immoral,antelope,23,female,NA,NA,"{""j_imp_calm_contained_RS"":6,""n_imp_calm_contained_RS"":4,""j_imp_upset_acted_without_thinking"":5,""n_imp_upset_acted_without_thinking"":6}",immoral_stimulus_1,"[0,1,2,3]",emotional_impulsivity,/Users/martincz/GitHub/COGS119/group_wi26_moral_character/analysis/../data/raw_data/p4s87kqkvfc_1772141887306.csv,j_imp_upset_acted_without_thinking,5,23,morality,FALSE,j,fast
24060,survey-likert,12,20,193918,p4s87kqkvfc,slow,immoral,antelope,23,female,NA,NA,"{""j_imp_calm_contained_RS"":6,""n_imp_calm_contained_RS"":4,""j_imp_upset_acted_without_thinking"":5,""n_imp_upset_acted_without_thinking"":6}",immoral_stimulus_1,"[0,1,2,3]",emotional_impulsivity,/Users/martincz/GitHub/COGS119/group_wi26_moral_character/analysis/../data/raw_data/p4s87kqkvfc_1772141887306.csv,n_imp_upset_acted_without_thinking,6,23,morality,FALSE,n,slow
4506,survey-likert,15,21,210854,p4s87kqkvfc,slow,immoral,antelope,23,female,NA,NA,"{""b_standards_eval"":5}",byst_scenario_slow,[0],byst_standards,/Users/martincz/GitHub/COGS119/group_wi26_moral_character/analysis/../data/raw_data/p4s87kqkvfc_1772141887306.csv,b_standards_eval,5,23,morality,FALSE,b,bystander
7875,survey-likert,16,22,218731,p4s87kqkvfc,slow,immoral,antelope,23,female,NA,NA,"{""b_principles_eval"":6}",byst_scenario_slow,[0],byst_principles,/Users/martincz/GitHub/COGS119/group_wi26_moral_character/analysis/../data/raw_data/p4s87kqkvfc_1772141887306.csv,b_principles_eval,6,23,morality,FALSE,b,bystander
6147,survey-likert,17,23,224880,p4s87kqkvfc,slow,immoral,antelope,23,female,NA,NA,"{""b_deepness_eval"":3}",byst_scenario_slow,[0],byst_depth,/Users/martincz/GitHub/COGS119/group_wi26_moral_character/analysis/../data/raw_data/p4s87kqkvfc_1772141887306.csv,b_deepness_eval,3,23,morality,FALSE,b,bystander
27343,survey-likert,18,24,252227,p4s87kqkvfc,slow,immoral,antelope,23,female,NA,NA,"{""B_cert_quite_certain"":6,""B_cert_reservations_RS"":3,""B_cert_conflicted_RS"":4,""B_cert_far_from_alternative"":5}",byst_scenario_slow,"[2,1,0,3]",byst_certainty,/Users/martincz/GitHub/COGS119/group_wi26_moral_character/analysis/../data/raw_data/p4s87kqkvfc_1772141887306.csv,B_cert_conflicted_RS,4,23,morality,FALSE,b,bystander
27343,survey-likert,18,25,252227,p4s87kqkvfc,slow,immoral,antelope,23,female,NA,NA,"{""B_cert_quite_certain"":6,""B_cert_reservations_RS"":3,""B_cert_conflicted_RS"":4,""B_cert_far_from_alternative"":5}",byst_scenario_slow,"[2,1,0,3]",byst_certainty,/Users/martincz/GitHub/COGS119/group_wi26_moral_character/analysis/../data/raw_data/p4s87kqkvfc_1772141887306.csv,B_cert_quite_certain,6,23,morality,FALSE,b,bystander
27343,survey-likert,18,26,252227,p4s87kqkvfc,slow,immoral,antelope,23,female,NA,NA,"{""B_cert_quite_certain"":6,""B_cert_reservations_RS"":3,""B_cert_conflicted_RS"":4,""B_cert_far_from_alternative"":5}",byst_scenario_slow,"[2,1,0,3]",byst_certainty,/Users/martincz/GitHub/COGS119/group_wi26_moral_character/analysis/../data/raw_data/p4s87kqkvfc_1772141887306.csv,B_cert_far_from_alternative,5,23,morality,FALSE,b,bystander
27343,survey-likert,18,27,252227,p4s87kqkvfc,slow,immoral,antelope,23,female,NA,NA,"{""B_cert_quite_certain"":6,""B_cert_reservations_RS"":3,""B_cert_conflicted_RS"":4,""B_cert_far_from_alternative"":5}",byst_scenario_slow,"[2,1,0,3]",byst_certainty,/Users/martincz/GitHub/COGS119/group_wi26_moral_character/analysis/../data/raw_data/p4s87kqkvfc_1772141887306.csv,B_cert_reservations_RS,3,23,morality,FALSE,b,bystander
10318,survey-likert,19,28,262547,p4s87kqkvfc,slow,immoral,antelope,23,female,NA,NA,"{""b_imp_upset_acted_without_thinking"":1,""b_imp_calm_contained_RS"":6}",byst_scenario_slow,"[1,0]",byst_emotional_impulsivity,/Users/martincz/GitHub/COGS119/group_wi26_moral_character/analysis/../data/raw_data/p4s87kqkvfc_1772141887306.csv,b_imp_calm_contained_RS,6,23,morality,FALSE,b,bystander
10318,survey-likert,19,29,262547,p4s87kqkvfc,slow,immoral,antelope,23,female,NA,NA,"{""b_imp_upset_acted_without_thinking"":1,""b_imp_calm_contained_RS"":6}",byst_scenario_slow,"[1,0]",byst_emotional_impulsivity,/Users/martincz/GitHub/COGS119/group_wi26_moral_character/analysis/../data/raw_data/p4s87kqkvfc_1772141887306.csv,b_imp_upset_acted_without_thinking,1,23,morality,FALSE,b,bystander
36664,survey-likert,22,30,302615,p4s87kqkvfc,slow,immoral,antelope,23,female,NA,NA,"{""ma_outcomes_matter"":6,""ma_some_actions_wrong"":0,""ma_think_through"":4,""ma_gut_feelings"":4,""ma_character_reflective"":6}",byst_scenario_slow,"[2,3,1,0,4]",moral_attitudes,/Users/martincz/GitHub/COGS119/group_wi26_moral_character/analysis/../data/raw_data/p4s87kqkvfc_1772141887306.csv,ma_gut_feelings,4,23,morality,FALSE,NA,NA
36664,survey-likert,22,31,302615,p4s87kqkvfc,slow,immoral,antelope,23,female,NA,NA,"{""ma_outcomes_matter"":6,""ma_some_actions_wrong"":0,""ma_think_through"":4,""ma_gut_feelings"":4,""ma_character_reflective"":6}",byst_scenario_slow,"[2,3,1,0,4]",moral_attitudes,/Users/martincz/GitHub/COGS119/group_wi26_moral_character/analysis/../data/raw_data/p4s87kqkvfc_1772141887306.csv,ma_character_reflective,6,23,morality,FALSE,NA,NA
36664,survey-likert,22,32,302615,p4s87kqkvfc,slow,immoral,antelope,23,female,NA,NA,"{""ma_outcomes_matter"":6,""ma_some_actions_wrong"":0,""ma_think_through"":4,""ma_gut_feelings"":4,""ma_character_reflective"":6}",byst_scenario_slow,"[2,3,1,0,4]",moral_attitudes,/Users/martincz/GitHub/COGS119/group_wi26_moral_character/analysis/../data/raw_data/p4s87kqkvfc_1772141887306.csv,ma_outcomes_matter,6,23,morality,FALSE,NA,NA
36664,survey-likert,22,33,302615,p4s87kqkvfc,slow,immoral,antelope,23,female,NA,NA,"{""ma_outcomes_matter"":6,""ma_some_actions_wrong"":0,""ma_think_through"":4,""ma_gut_feelings"":4,""ma_character_reflective"":6}",byst_scenario_slow,"[2,3,1,0,4]",moral_attitudes,/Users/martincz/GitHub/COGS119/group_wi26_moral_character/analysis/../data/raw_data/p4s87kqkvfc_1772141887306.csv,ma_some_actions_wrong,0,23,morality,FALSE,NA,NA
36664,survey-likert,22,34,302615,p4s87kqkvfc,slow,immoral,antelope,23,female,NA,NA,"{""ma_outcomes_matter"":6,""ma_some_actions_wrong"":0,""ma_think_through"":4,""ma_gut_feelings"":4,""ma_character_reflective"":6}",byst_scenario_slow,"[2,3,1,0,4]",moral_attitudes,/Users/martincz/GitHub/COGS119/group_wi26_moral_character/analysis/../data/raw_data/p4s87kqkvfc_1772141887306.csv,ma_think_through,4,23,morality,FALSE,NA,NA
8698,survey-likert,6,1,40861,p5a5napt8o8,quick,moral,wolf,20,female,NA,NA,"{""j_manipulation_check"":6,""n_manipulation_check"":0}",moral_stimulus_1,"[0,1]",manipulation_check,/Users/martincz/GitHub/COGS119/group_wi26_moral_character/analysis/../data/raw_data/p5a5napt8o8_1772140505300.csv,j_manipulation_check,6,20,I think it's about morality and how we view different courses of actions as differing in morality even if the result was the same; no tech. difficulties,FALSE,j,fast
8698,survey-likert,6,2,40861,p5a5napt8o8,quick,moral,wolf,20,female,NA,NA,"{""j_manipulation_check"":6,""n_manipulation_check"":0}",moral_stimulus_1,"[0,1]",manipulation_check,/Users/martincz/GitHub/COGS119/group_wi26_moral_character/analysis/../data/raw_data/p5a5napt8o8_1772140505300.csv,n_manipulation_check,0,20,I think it's about morality and how we view different courses of actions as differing in morality even if the result was the same; no tech. difficulties,FALSE,n,slow
17013,survey-likert,7,3,57875,p5a5napt8o8,quick,moral,wolf,20,female,NA,NA,"{""n_standards_eval"":4,""j_standards_eval"":6}",moral_stimulus_1,"[1,0]",standards,/Users/martincz/GitHub/COGS119/group_wi26_moral_character/analysis/../data/raw_data/p5a5napt8o8_1772140505300.csv,n_standards_eval,4,20,I think it's about morality and how we view different courses of actions as differing in morality even if the result was the same; no tech. difficulties,FALSE,n,slow
17013,survey-likert,7,4,57875,p5a5napt8o8,quick,moral,wolf,20,female,NA,NA,"{""n_standards_eval"":4,""j_standards_eval"":6}",moral_stimulus_1,"[1,0]",standards,/Users/martincz/GitHub/COGS119/group_wi26_moral_character/analysis/../data/raw_data/p5a5napt8o8_1772140505300.csv,j_standards_eval,6,20,I think it's about morality and how we view different courses of actions as differing in morality even if the result was the same; no tech. difficulties,FALSE,j,fast
16000,survey-likert,8,5,73876,p5a5napt8o8,quick,moral,wolf,20,female,NA,NA,"{""n_principles_eval"":4,""j_principles_eval"":5}",moral_stimulus_1,"[1,0]",principles,/Users/martincz/GitHub/COGS119/group_wi26_moral_character/analysis/../data/raw_data/p5a5napt8o8_1772140505300.csv,n_principles_eval,4,20,I think it's about morality and how we view different courses of actions as differing in morality even if the result was the same; no tech. difficulties,FALSE,n,slow
16000,survey-likert,8,6,73876,p5a5napt8o8,quick,moral,wolf,20,female,NA,NA,"{""n_principles_eval"":4,""j_principles_eval"":5}",moral_stimulus_1,"[1,0]",principles,/Users/martincz/GitHub/COGS119/group_wi26_moral_character/analysis/../data/raw_data/p5a5napt8o8_1772140505300.csv,j_principles_eval,5,20,I think it's about morality and how we view different courses of actions as differing in morality even if the result was the same; no tech. difficulties,FALSE,j,fast
37196,survey-likert,9,7,111073,p5a5napt8o8,quick,moral,wolf,20,female,NA,NA,"{""j_deepness_eval"":6,""n_deepness_eval"":6}",moral_stimulus_1,"[0,1]",depth,/Users/martincz/GitHub/COGS119/group_wi26_moral_character/analysis/../data/raw_data/p5a5napt8o8_1772140505300.csv,n_deepness_eval,6,20,I think it's about morality and how we view different courses of actions as differing in morality even if the result was the same; no tech. difficulties,FALSE,n,slow
37196,survey-likert,9,8,111073,p5a5napt8o8,quick,moral,wolf,20,female,NA,NA,"{""j_deepness_eval"":6,""n_deepness_eval"":6}",moral_stimulus_1,"[0,1]",depth,/Users/martincz/GitHub/COGS119/group_wi26_moral_character/analysis/../data/raw_data/p5a5napt8o8_1772140505300.csv,j_deepness_eval,6,20,I think it's about morality and how we view different courses of actions as differing in morality even if the result was the same; no tech. difficulties,FALSE,j,fast
11538,survey-likert,10,9,122612,p5a5napt8o8,quick,moral,wolf,20,female,NA,NA,"{""j_cert_conflicted_RS"":0,""n_cert_conflicted_RS"":5,""j_cert_reservations_RS"":0,""n_cert_reservations_RS"":5}",moral_stimulus_1,"[0,1,2,3]",certainty,/Users/martincz/GitHub/COGS119/group_wi26_moral_character/analysis/../data/raw_data/p5a5napt8o8_1772140505300.csv,j_cert_conflicted_RS,0,20,I think it's about morality and how we view different courses of actions as differing in morality even if the result was the same; no tech. difficulties,FALSE,j,fast
11538,survey-likert,10,10,122612,p5a5napt8o8,quick,moral,wolf,20,female,NA,NA,"{""j_cert_conflicted_RS"":0,""n_cert_conflicted_RS"":5,""j_cert_reservations_RS"":0,""n_cert_reservations_RS"":5}",moral_stimulus_1,"[0,1,2,3]",certainty,/Users/martincz/GitHub/COGS119/group_wi26_moral_character/analysis/../data/raw_data/p5a5napt8o8_1772140505300.csv,n_cert_conflicted_RS,5,20,I think it's about morality and how we view different courses of actions as differing in morality even if the result was the same; no tech. difficulties,FALSE,n,slow
11538,survey-likert,10,11,122612,p5a5napt8o8,quick,moral,wolf,20,female,NA,NA,"{""j_cert_conflicted_RS"":0,""n_cert_conflicted_RS"":5,""j_cert_reservations_RS"":0,""n_cert_reservations_RS"":5}",moral_stimulus_1,"[0,1,2,3]",certainty,/Users/martincz/GitHub/COGS119/group_wi26_moral_character/analysis/../data/raw_data/p5a5napt8o8_1772140505300.csv,j_cert_reservations_RS,0,20,I think it's about morality and how we view different courses of actions as differing in morality even if the result was the same; no tech. difficulties,FALSE,j,fast
11538,survey-likert,10,12,122612,p5a5napt8o8,quick,moral,wolf,20,female,NA,NA,"{""j_cert_conflicted_RS"":0,""n_cert_conflicted_RS"":5,""j_cert_reservations_RS"":0,""n_cert_reservations_RS"":5}",moral_stimulus_1,"[0,1,2,3]",certainty,/Users/martincz/GitHub/COGS119/group_wi26_moral_character/analysis/../data/raw_data/p5a5napt8o8_1772140505300.csv,n_cert_reservations_RS,5,20,I think it's about morality and how we view different courses of actions as differing in morality even if the result was the same; no tech. difficulties,FALSE,n,slow
17142,survey-likert,11,13,139756,p5a5napt8o8,quick,moral,wolf,20,female,NA,NA,"{""j_cert_quite_certain"":6,""n_cert_quite_certain"":0,""j_cert_far_from_alternative"":0,""n_cert_far_from_alternative"":5}",moral_stimulus_1,"[0,1,2,3]",certainty,/Users/martincz/GitHub/COGS119/group_wi26_moral_character/analysis/../data/raw_data/p5a5napt8o8_1772140505300.csv,j_cert_quite_certain,6,20,I think it's about morality and how we view different courses of actions as differing in morality even if the result was the same; no tech. difficulties,FALSE,j,fast
17142,survey-likert,11,14,139756,p5a5napt8o8,quick,moral,wolf,20,female,NA,NA,"{""j_cert_quite_certain"":6,""n_cert_quite_certain"":0,""j_cert_far_from_alternative"":0,""n_cert_far_from_alternative"":5}",moral_stimulus_1,"[0,1,2,3]",certainty,/Users/martincz/GitHub/COGS119/group_wi26_moral_character/analysis/../data/raw_data/p5a5napt8o8_1772140505300.csv,n_cert_quite_certain,0,20,I think it's about morality and how we view different courses of actions as differing in morality even if the result was the same; no tech. difficulties,FALSE,n,slow
17142,survey-likert,11,15,139756,p5a5napt8o8,quick,moral,wolf,20,female,NA,NA,"{""j_cert_quite_certain"":6,""n_cert_quite_certain"":0,""j_cert_far_from_alternative"":0,""n_cert_far_from_alternative"":5}",moral_stimulus_1,"[0,1,2,3]",certainty,/Users/martincz/GitHub/COGS119/group_wi26_moral_character/analysis/../data/raw_data/p5a5napt8o8_1772140505300.csv,j_cert_far_from_alternative,0,20,I think it's about morality and how we view different courses of actions as differing in morality even if the result was the same; no tech. difficulties,FALSE,j,fast
17142,survey-likert,11,16,139756,p5a5napt8o8,quick,moral,wolf,20,female,NA,NA,"{""j_cert_quite_certain"":6,""n_cert_quite_certain"":0,""j_cert_far_from_alternative"":0,""n_cert_far_from_alternative"":5}",moral_stimulus_1,"[0,1,2,3]",certainty,/Users/martincz/GitHub/COGS119/group_wi26_moral_character/analysis/../data/raw_data/p5a5napt8o8_1772140505300.csv,n_cert_far_from_alternative,5,20,I think it's about morality and how we view different courses of actions as differing in morality even if the result was the same; no tech. difficulties,FALSE,n,slow
14748,survey-likert,12,17,154504,p5a5napt8o8,quick,moral,wolf,20,female,NA,NA,"{""j_imp_calm_contained_RS"":4,""n_imp_calm_contained_RS"":2,""j_imp_upset_acted_without_thinking"":0,""n_imp_upset_acted_without_thinking"":0}",moral_stimulus_1,"[0,1,2,3]",emotional_impulsivity,/Users/martincz/GitHub/COGS119/group_wi26_moral_character/analysis/../data/raw_data/p5a5napt8o8_1772140505300.csv,j_imp_calm_contained_RS,4,20,I think it's about morality and how we view different courses of actions as differing in morality even if the result was the same; no tech. difficulties,FALSE,j,fast
14748,survey-likert,12,18,154504,p5a5napt8o8,quick,moral,wolf,20,female,NA,NA,"{""j_imp_calm_contained_RS"":4,""n_imp_calm_contained_RS"":2,""j_imp_upset_acted_without_thinking"":0,""n_imp_upset_acted_without_thinking"":0}",moral_stimulus_1,"[0,1,2,3]",emotional_impulsivity,/Users/martincz/GitHub/COGS119/group_wi26_moral_character/analysis/../data/raw_data/p5a5napt8o8_1772140505300.csv,n_imp_calm_contained_RS,2,20,I think it's about morality and how we view different courses of actions as differing in morality even if the result was the same; no tech. difficulties,FALSE,n,slow
14748,survey-likert,12,19,154504,p5a5napt8o8,quick,moral,wolf,20,female,NA,NA,"{""j_imp_calm_contained_RS"":4,""n_imp_calm_contained_RS"":2,""j_imp_upset_acted_without_thinking"":0,""n_imp_upset_acted_without_thinking"":0}",moral_stimulus_1,"[0,1,2,3]",emotional_impulsivity,/Users/martincz/GitHub/COGS119/group_wi26_moral_character/analysis/../data/raw_data/p5a5napt8o8_1772140505300.csv,j_imp_upset_acted_without_thinking,0,20,I think it's about morality and how we view different courses of actions as differing in morality even if the result was the same; no tech. difficulties,FALSE,j,fast
14748,survey-likert,12,20,154504,p5a5napt8o8,quick,moral,wolf,20,female,NA,NA,"{""j_imp_calm_contained_RS"":4,""n_imp_calm_contained_RS"":2,""j_imp_upset_acted_without_thinking"":0,""n_imp_upset_acted_without_thinking"":0}",moral_stimulus_1,"[0,1,2,3]",emotional_impulsivity,/Users/martincz/GitHub/COGS119/group_wi26_moral_character/analysis/../data/raw_data/p5a5napt8o8_1772140505300.csv,n_imp_upset_acted_without_thinking,0,20,I think it's about morality and how we view different courses of actions as differing in morality even if the result was the same; no tech. difficulties,FALSE,n,slow
14339,survey-likert,15,21,176324,p5a5napt8o8,quick,moral,wolf,20,female,NA,NA,"{""b_principles_eval"":4}",byst_scenario_quick,[0],byst_principles,/Users/martincz/GitHub/COGS119/group_wi26_moral_character/analysis/../data/raw_data/p5a5napt8o8_1772140505300.csv,b_principles_eval,4,20,I think it's about morality and how we view different courses of actions as differing in morality even if the result was the same; no tech. difficulties,FALSE,b,bystander
6021,survey-likert,16,22,182346,p5a5napt8o8,quick,moral,wolf,20,female,NA,NA,"{""b_standards_eval"":3}",byst_scenario_quick,[0],byst_standards,/Users/martincz/GitHub/COGS119/group_wi26_moral_character/analysis/../data/raw_data/p5a5napt8o8_1772140505300.csv,b_standards_eval,3,20,I think it's about morality and how we view different courses of actions as differing in morality even if the result was the same; no tech. difficulties,FALSE,b,bystander
6262,survey-likert,17,23,188609,p5a5napt8o8,quick,moral,wolf,20,female,NA,NA,"{""b_deepness_eval"":1}",byst_scenario_quick,[0],byst_depth,/Users/martincz/GitHub/COGS119/group_wi26_moral_character/analysis/../data/raw_data/p5a5napt8o8_1772140505300.csv,b_deepness_eval,1,20,I think it's about morality and how we view different courses of actions as differing in morality even if the result was the same; no tech. difficulties,FALSE,b,bystander
