rt,trial_type,trial_index,trial_number,time_elapsed,random_id,bystander_condition,condition,participant_id,age,gender,inquiry,stimulus,response,item_type,question_order,block_type,file_name,j_manipulation_check,n_manipulation_check,n_principles_eval,j_principles_eval,n_standards_eval,j_standards_eval,n_deepness_eval,j_deepness_eval,j_cert_conflicted_RS,n_cert_conflicted_RS,j_cert_reservations_RS,n_cert_reservations_RS,j_cert_quite_certain,n_cert_quite_certain,j_cert_far_from_alternative,n_cert_far_from_alternative,j_imp_calm_contained_RS,n_imp_calm_contained_RS,j_imp_upset_acted_without_thinking,n_imp_upset_acted_without_thinking,b_principles_eval,b_standards_eval,b_deepness_eval,b_imp_calm_contained_RS,b_imp_upset_acted_without_thinking,B_cert_conflicted_RS,B_cert_quite_certain,B_cert_far_from_alternative,B_cert_reservations_RS,ma_gut_feelings,ma_character_reflective,ma_outcomes_matter,ma_some_actions_wrong,ma_think_through,participant_is_group_member
1405,fullscreen,0,1,2421,p06tycu8a34,slow,moral,whale,21,male,NA,NA,NA,NA,NA,NA,/Users/martincz/GitHub/COGS119/group_wi26_moral_character/analysis/../data/raw_data/p06tycu8a34_1772524616873.csv,NA,NA,NA,NA,NA,NA,NA,NA,NA,NA,NA,NA,NA,NA,NA,NA,NA,NA,NA,NA,NA,NA,NA,NA,NA,NA,NA,NA,NA,NA,NA,NA,NA,NA,TRUE
1291,html-keyboard-response,1,2,3713,p06tycu8a34,slow,moral,whale,21,male,NA,Welcome to the experiment. Press any key to begin.,NA,NA,NA,NA,/Users/martincz/GitHub/COGS119/group_wi26_moral_character/analysis/../data/raw_data/p06tycu8a34_1772524616873.csv,NA,NA,NA,NA,NA,NA,NA,NA,NA,NA,NA,NA,NA,NA,NA,NA,NA,NA,NA,NA,NA,NA,NA,NA,NA,NA,NA,NA,NA,NA,NA,NA,NA,NA,TRUE
1851,survey-text,2,3,5575,p06tycu8a34,slow,moral,whale,21,male,NA,NA,"{""participant_id"":""whale""}",NA,NA,NA,/Users/martincz/GitHub/COGS119/group_wi26_moral_character/analysis/../data/raw_data/p06tycu8a34_1772524616873.csv,NA,NA,NA,NA,NA,NA,NA,NA,NA,NA,NA,NA,NA,NA,NA,NA,NA,NA,NA,NA,NA,NA,NA,NA,NA,NA,NA,NA,NA,NA,NA,NA,NA,NA,TRUE
975,html-keyboard-response,3,4,6550,p06tycu8a34,slow,moral,whale,21,male,NA,"
   <p>In this experiment, you will be presented with potential scenarios.</p><p>Please read through these carefully.</p>
   <p>You will answer a series of questions afterwards.</p>
   <p>Press any key to begin.</p>
",NA,NA,NA,NA,/Users/martincz/GitHub/COGS119/group_wi26_moral_character/analysis/../data/raw_data/p06tycu8a34_1772524616873.csv,NA,NA,NA,NA,NA,NA,NA,NA,NA,NA,NA,NA,NA,NA,NA,NA,NA,NA,NA,NA,NA,NA,NA,NA,NA,NA,NA,NA,NA,NA,NA,NA,NA,NA,TRUE
3020,html-button-response,4,5,9572,p06tycu8a34,slow,moral,whale,21,male,NA,"<p>Two people, J and N, were walking to separate cars in the parking lot of Andronico's, a local grocery store, where they each spotted a different lost wallet next to the cars.</p><p> Upon picking up the wallet and looking inside, each found several hundred dollars in cash. Each person considered whether they should return the wallet and money to the Customer Service desk at Andronico's, or pocket the money and drive away.</p>",0,NA,NA,NA,/Users/martincz/GitHub/COGS119/group_wi26_moral_character/analysis/../data/raw_data/p06tycu8a34_1772524616873.csv,NA,NA,NA,NA,NA,NA,NA,NA,NA,NA,NA,NA,NA,NA,NA,NA,NA,NA,NA,NA,NA,NA,NA,NA,NA,NA,NA,NA,NA,NA,NA,NA,NA,NA,TRUE
765,html-button-response,5,6,10338,p06tycu8a34,slow,moral,whale,21,male,NA,"<p> J saw their decision as an easy one and was <i> able to decide quickly. J did not steal the money </i> and instead left the wallet with Customer Service.</p><p> In contrast, N saw their decision as difficult and <i> was only able to decide after long and careful deliberation</i>. After several minutes of thinking in their car, <i> N too decided not to steal the money </i> and instead left the wallet with customer service. </i><br> </p>",0,moral_stimulus_1,NA,NA,/Users/martincz/GitHub/COGS119/group_wi26_moral_character/analysis/../data/raw_data/p06tycu8a34_1772524616873.csv,NA,NA,NA,NA,NA,NA,NA,NA,NA,NA,NA,NA,NA,NA,NA,NA,NA,NA,NA,NA,NA,NA,NA,NA,NA,NA,NA,NA,NA,NA,NA,NA,NA,NA,TRUE
4684,survey-likert,6,7,15024,p06tycu8a34,slow,moral,whale,21,male,NA,NA,"{""j_manipulation_check"":4,""n_manipulation_check"":2}",NA,"[0,1]",NA,/Users/martincz/GitHub/COGS119/group_wi26_moral_character/analysis/../data/raw_data/p06tycu8a34_1772524616873.csv,4,2,NA,NA,NA,NA,NA,NA,NA,NA,NA,NA,NA,NA,NA,NA,NA,NA,NA,NA,NA,NA,NA,NA,NA,NA,NA,NA,NA,NA,NA,NA,NA,NA,TRUE
9190,survey-likert,7,8,24216,p06tycu8a34,slow,moral,whale,21,male,NA,NA,"{""n_principles_eval"":5,""j_principles_eval"":4}",NA,"[1,0]",principles,/Users/martincz/GitHub/COGS119/group_wi26_moral_character/analysis/../data/raw_data/p06tycu8a34_1772524616873.csv,NA,NA,5,4,NA,NA,NA,NA,NA,NA,NA,NA,NA,NA,NA,NA,NA,NA,NA,NA,NA,NA,NA,NA,NA,NA,NA,NA,NA,NA,NA,NA,NA,NA,TRUE
4190,survey-likert,8,9,28407,p06tycu8a34,slow,moral,whale,21,male,NA,NA,"{""n_standards_eval"":1,""j_standards_eval"":2}",NA,"[1,0]",standards,/Users/martincz/GitHub/COGS119/group_wi26_moral_character/analysis/../data/raw_data/p06tycu8a34_1772524616873.csv,NA,NA,NA,NA,1,2,NA,NA,NA,NA,NA,NA,NA,NA,NA,NA,NA,NA,NA,NA,NA,NA,NA,NA,NA,NA,NA,NA,NA,NA,NA,NA,NA,NA,TRUE
4325,survey-likert,9,10,32733,p06tycu8a34,slow,moral,whale,21,male,NA,NA,"{""n_deepness_eval"":5,""j_deepness_eval"":4}",NA,"[1,0]",depth,/Users/martincz/GitHub/COGS119/group_wi26_moral_character/analysis/../data/raw_data/p06tycu8a34_1772524616873.csv,NA,NA,NA,NA,NA,NA,5,4,NA,NA,NA,NA,NA,NA,NA,NA,NA,NA,NA,NA,NA,NA,NA,NA,NA,NA,NA,NA,NA,NA,NA,NA,NA,NA,TRUE
13973,survey-likert,10,11,46707,p06tycu8a34,slow,moral,whale,21,male,NA,NA,"{""j_cert_conflicted_RS"":1,""n_cert_conflicted_RS"":5,""j_cert_reservations_RS"":1,""n_cert_reservations_RS"":5}",NA,"[0,1,2,3]",certainty,/Users/martincz/GitHub/COGS119/group_wi26_moral_character/analysis/../data/raw_data/p06tycu8a34_1772524616873.csv,NA,NA,NA,NA,NA,NA,NA,NA,1,5,1,5,NA,NA,NA,NA,NA,NA,NA,NA,NA,NA,NA,NA,NA,NA,NA,NA,NA,NA,NA,NA,NA,NA,TRUE
13149,survey-likert,11,12,59857,p06tycu8a34,slow,moral,whale,21,male,NA,NA,"{""j_cert_quite_certain"":5,""n_cert_quite_certain"":1,""j_cert_far_from_alternative"":5,""n_cert_far_from_alternative"":1}",NA,"[0,1,2,3]",certainty,/Users/martincz/GitHub/COGS119/group_wi26_moral_character/analysis/../data/raw_data/p06tycu8a34_1772524616873.csv,NA,NA,NA,NA,NA,NA,NA,NA,NA,NA,NA,NA,5,1,5,1,NA,NA,NA,NA,NA,NA,NA,NA,NA,NA,NA,NA,NA,NA,NA,NA,NA,NA,TRUE
10398,survey-likert,12,13,70257,p06tycu8a34,slow,moral,whale,21,male,NA,NA,"{""j_imp_calm_contained_RS"":4,""n_imp_calm_contained_RS"":3,""j_imp_upset_acted_without_thinking"":2,""n_imp_upset_acted_without_thinking"":3}",NA,"[0,1,2,3]",emotional_impulsivity,/Users/martincz/GitHub/COGS119/group_wi26_moral_character/analysis/../data/raw_data/p06tycu8a34_1772524616873.csv,NA,NA,NA,NA,NA,NA,NA,NA,NA,NA,NA,NA,NA,NA,NA,NA,4,3,2,3,NA,NA,NA,NA,NA,NA,NA,NA,NA,NA,NA,NA,NA,NA,TRUE
1233,html-button-response,13,14,71491,p06tycu8a34,slow,moral,whale,21,male,NA,"<p> The next day, B was leaving the local grocery store when they also spotted a lost wallet next to their car.</p><p> Upon picking up the wallet and looking inside, B found several hundred dollars in cash. </p>",0,NA,NA,NA,/Users/martincz/GitHub/COGS119/group_wi26_moral_character/analysis/../data/raw_data/p06tycu8a34_1772524616873.csv,NA,NA,NA,NA,NA,NA,NA,NA,NA,NA,NA,NA,NA,NA,NA,NA,NA,NA,NA,NA,NA,NA,NA,NA,NA,NA,NA,NA,NA,NA,NA,NA,NA,NA,TRUE
638,html-button-response,14,15,72131,p06tycu8a34,slow,moral,whale,21,male,NA,"<p> B saw their decision as difficult and <i> was only able to decide after long and careful deliberation</i>. After several minutes of thinking, B decided to leave the wallet where they found it and drove off. </p>",0,byst_scenario_slow,NA,NA,/Users/martincz/GitHub/COGS119/group_wi26_moral_character/analysis/../data/raw_data/p06tycu8a34_1772524616873.csv,NA,NA,NA,NA,NA,NA,NA,NA,NA,NA,NA,NA,NA,NA,NA,NA,NA,NA,NA,NA,NA,NA,NA,NA,NA,NA,NA,NA,NA,NA,NA,NA,NA,NA,TRUE
3191,survey-likert,15,16,75323,p06tycu8a34,slow,moral,whale,21,male,NA,NA,"{""b_principles_eval"":4}",NA,[0],byst_principles,/Users/martincz/GitHub/COGS119/group_wi26_moral_character/analysis/../data/raw_data/p06tycu8a34_1772524616873.csv,NA,NA,NA,NA,NA,NA,NA,NA,NA,NA,NA,NA,NA,NA,NA,NA,NA,NA,NA,NA,4,NA,NA,NA,NA,NA,NA,NA,NA,NA,NA,NA,NA,NA,TRUE
1806,survey-likert,16,17,77130,p06tycu8a34,slow,moral,whale,21,male,NA,NA,"{""b_standards_eval"":2}",NA,[0],byst_standards,/Users/martincz/GitHub/COGS119/group_wi26_moral_character/analysis/../data/raw_data/p06tycu8a34_1772524616873.csv,NA,NA,NA,NA,NA,NA,NA,NA,NA,NA,NA,NA,NA,NA,NA,NA,NA,NA,NA,NA,NA,2,NA,NA,NA,NA,NA,NA,NA,NA,NA,NA,NA,NA,TRUE
1672,survey-likert,17,18,78804,p06tycu8a34,slow,moral,whale,21,male,NA,NA,"{""b_deepness_eval"":3}",NA,[0],byst_depth,/Users/martincz/GitHub/COGS119/group_wi26_moral_character/analysis/../data/raw_data/p06tycu8a34_1772524616873.csv,NA,NA,NA,NA,NA,NA,NA,NA,NA,NA,NA,NA,NA,NA,NA,NA,NA,NA,NA,NA,NA,NA,3,NA,NA,NA,NA,NA,NA,NA,NA,NA,NA,NA,TRUE
4968,survey-likert,18,19,83775,p06tycu8a34,slow,moral,whale,21,male,NA,NA,"{""b_imp_calm_contained_RS"":1,""b_imp_upset_acted_without_thinking"":4}",NA,"[0,1]",byst_emotional_impulsivity,/Users/martincz/GitHub/COGS119/group_wi26_moral_character/analysis/../data/raw_data/p06tycu8a34_1772524616873.csv,NA,NA,NA,NA,NA,NA,NA,NA,NA,NA,NA,NA,NA,NA,NA,NA,NA,NA,NA,NA,NA,NA,NA,1,4,NA,NA,NA,NA,NA,NA,NA,NA,NA,TRUE
6663,survey-likert,19,20,90441,p06tycu8a34,slow,moral,whale,21,male,NA,NA,"{""B_cert_conflicted_RS"":5,""B_cert_quite_certain"":4,""B_cert_far_from_alternative"":3,""B_cert_reservations_RS"":2}",NA,"[0,2,3,1]",byst_certainty,/Users/martincz/GitHub/COGS119/group_wi26_moral_character/analysis/../data/raw_data/p06tycu8a34_1772524616873.csv,NA,NA,NA,NA,NA,NA,NA,NA,NA,NA,NA,NA,NA,NA,NA,NA,NA,NA,NA,NA,NA,NA,NA,NA,NA,5,4,3,2,NA,NA,NA,NA,NA,TRUE
2591,survey-text,20,21,93036,p06tycu8a34,slow,moral,whale,21,male,NA,NA,"{""participant_age"":""21""}",NA,NA,NA,/Users/martincz/GitHub/COGS119/group_wi26_moral_character/analysis/../data/raw_data/p06tycu8a34_1772524616873.csv,NA,NA,NA,NA,NA,NA,NA,NA,NA,NA,NA,NA,NA,NA,NA,NA,NA,NA,NA,NA,NA,NA,NA,NA,NA,NA,NA,NA,NA,NA,NA,NA,NA,NA,TRUE
1943,survey-text,21,22,94982,p06tycu8a34,slow,moral,whale,21,male,NA,NA,"{""gender"":""male""}",NA,NA,NA,/Users/martincz/GitHub/COGS119/group_wi26_moral_character/analysis/../data/raw_data/p06tycu8a34_1772524616873.csv,NA,NA,NA,NA,NA,NA,NA,NA,NA,NA,NA,NA,NA,NA,NA,NA,NA,NA,NA,NA,NA,NA,NA,NA,NA,NA,NA,NA,NA,NA,NA,NA,NA,NA,TRUE
13941,survey-likert,22,23,108927,p06tycu8a34,slow,moral,whale,21,male,NA,NA,"{""ma_gut_feelings"":5,""ma_character_reflective"":5,""ma_outcomes_matter"":4,""ma_some_actions_wrong"":5,""ma_think_through"":5}",NA,"[0,4,2,3,1]",moral_attitudes,/Users/martincz/GitHub/COGS119/group_wi26_moral_character/analysis/../data/raw_data/p06tycu8a34_1772524616873.csv,NA,NA,NA,NA,NA,NA,NA,NA,NA,NA,NA,NA,NA,NA,NA,NA,NA,NA,NA,NA,NA,NA,NA,NA,NA,NA,NA,NA,NA,5,5,4,5,5,TRUE
14895,survey-text,23,24,123825,p06tycu8a34,slow,moral,whale,21,male,NA,NA,"{""Q0"":""affect of speed in perception of morality""}",NA,NA,NA,/Users/martincz/GitHub/COGS119/group_wi26_moral_character/analysis/../data/raw_data/p06tycu8a34_1772524616873.csv,NA,NA,NA,NA,NA,NA,NA,NA,NA,NA,NA,NA,NA,NA,NA,NA,NA,NA,NA,NA,NA,NA,NA,NA,NA,NA,NA,NA,NA,NA,NA,NA,NA,NA,TRUE
9703,fullscreen,0,1,10708,p0sfjew6kvk,quick,immoral,pony,21,female,NA,NA,NA,NA,NA,NA,/Users/martincz/GitHub/COGS119/group_wi26_moral_character/analysis/../data/raw_data/p0sfjew6kvk_1772139232472.csv,NA,NA,NA,NA,NA,NA,NA,NA,NA,NA,NA,NA,NA,NA,NA,NA,NA,NA,NA,NA,NA,NA,NA,NA,NA,NA,NA,NA,NA,NA,NA,NA,NA,NA,FALSE
17340,html-keyboard-response,1,2,28051,p0sfjew6kvk,quick,immoral,pony,21,female,NA,Welcome to the experiment. Press any key to begin.,NA,NA,NA,NA,/Users/martincz/GitHub/COGS119/group_wi26_moral_character/analysis/../data/raw_data/p0sfjew6kvk_1772139232472.csv,NA,NA,NA,NA,NA,NA,NA,NA,NA,NA,NA,NA,NA,NA,NA,NA,NA,NA,NA,NA,NA,NA,NA,NA,NA,NA,NA,NA,NA,NA,NA,NA,NA,NA,FALSE
1844,survey-text,2,3,29909,p0sfjew6kvk,quick,immoral,pony,21,female,NA,NA,"{""participant_id"":""pony""}",NA,NA,NA,/Users/martincz/GitHub/COGS119/group_wi26_moral_character/analysis/../data/raw_data/p0sfjew6kvk_1772139232472.csv,NA,NA,NA,NA,NA,NA,NA,NA,NA,NA,NA,NA,NA,NA,NA,NA,NA,NA,NA,NA,NA,NA,NA,NA,NA,NA,NA,NA,NA,NA,NA,NA,NA,NA,FALSE
5071,html-keyboard-response,3,4,34983,p0sfjew6kvk,quick,immoral,pony,21,female,NA,"
   <p>In this experiment, you will be presented with potential scenarios.</p><p>Please read through these carefully.</p>
   <p>You will answer a series of questions afterwards.</p>
   <p>Press any key to begin.</p>
",NA,NA,NA,NA,/Users/martincz/GitHub/COGS119/group_wi26_moral_character/analysis/../data/raw_data/p0sfjew6kvk_1772139232472.csv,NA,NA,NA,NA,NA,NA,NA,NA,NA,NA,NA,NA,NA,NA,NA,NA,NA,NA,NA,NA,NA,NA,NA,NA,NA,NA,NA,NA,NA,NA,NA,NA,NA,NA,FALSE
24572,html-button-response,4,5,59557,p0sfjew6kvk,quick,immoral,pony,21,female,NA,"<p>Two people, J and N, were walking to separate cars in the parking lot of Andronico's, a local grocery store, where they each spotted a different lost wallet next to the cars.</p><p> Upon picking up the wallet and looking inside, each found several hundred dollars in cash. Each person considered whether they should return the wallet and money to the Customer Service desk at Andronico's, or pocket the money and drive away.</p>",0,NA,NA,NA,/Users/martincz/GitHub/COGS119/group_wi26_moral_character/analysis/../data/raw_data/p0sfjew6kvk_1772139232472.csv,NA,NA,NA,NA,NA,NA,NA,NA,NA,NA,NA,NA,NA,NA,NA,NA,NA,NA,NA,NA,NA,NA,NA,NA,NA,NA,NA,NA,NA,NA,NA,NA,NA,NA,FALSE
14645,html-button-response,5,6,74204,p0sfjew6kvk,quick,immoral,pony,21,female,NA,"<p> N saw their decision as difficult and <i> was only able to decide after long and careful deliberation</i>. After several minutes of thinking in their car, <i> they decided to pocket the money and drive off.</i></p><p> In contrast, J saw their decision as an easy one and was <i> able to decide quickly. J too pocketed the money and drove off. </i></p>",0,immoral_stimulus_2,NA,NA,/Users/martincz/GitHub/COGS119/group_wi26_moral_character/analysis/../data/raw_data/p0sfjew6kvk_1772139232472.csv,NA,NA,NA,NA,NA,NA,NA,NA,NA,NA,NA,NA,NA,NA,NA,NA,NA,NA,NA,NA,NA,NA,NA,NA,NA,NA,NA,NA,NA,NA,NA,NA,NA,NA,FALSE
7316,survey-likert,6,7,81522,p0sfjew6kvk,quick,immoral,pony,21,female,NA,NA,"{""j_manipulation_check"":6,""n_manipulation_check"":2}",NA,"[0,1]",NA,/Users/martincz/GitHub/COGS119/group_wi26_moral_character/analysis/../data/raw_data/p0sfjew6kvk_1772139232472.csv,6,2,NA,NA,NA,NA,NA,NA,NA,NA,NA,NA,NA,NA,NA,NA,NA,NA,NA,NA,NA,NA,NA,NA,NA,NA,NA,NA,NA,NA,NA,NA,NA,NA,FALSE
27314,survey-likert,7,8,108840,p0sfjew6kvk,quick,immoral,pony,21,female,NA,NA,"{""j_standards_eval"":0,""n_standards_eval"":1}",NA,"[0,1]",standards,/Users/martincz/GitHub/COGS119/group_wi26_moral_character/analysis/../data/raw_data/p0sfjew6kvk_1772139232472.csv,NA,NA,NA,NA,1,0,NA,NA,NA,NA,NA,NA,NA,NA,NA,NA,NA,NA,NA,NA,NA,NA,NA,NA,NA,NA,NA,NA,NA,NA,NA,NA,NA,NA,FALSE
8983,survey-likert,8,9,117825,p0sfjew6kvk,quick,immoral,pony,21,female,NA,NA,"{""j_principles_eval"":0,""n_principles_eval"":1}",NA,"[0,1]",principles,/Users/martincz/GitHub/COGS119/group_wi26_moral_character/analysis/../data/raw_data/p0sfjew6kvk_1772139232472.csv,NA,NA,1,0,NA,NA,NA,NA,NA,NA,NA,NA,NA,NA,NA,NA,NA,NA,NA,NA,NA,NA,NA,NA,NA,NA,NA,NA,NA,NA,NA,NA,NA,NA,FALSE
9952,survey-likert,9,10,127789,p0sfjew6kvk,quick,immoral,pony,21,female,NA,NA,"{""j_deepness_eval"":0,""n_deepness_eval"":1}",NA,"[0,1]",depth,/Users/martincz/GitHub/COGS119/group_wi26_moral_character/analysis/../data/raw_data/p0sfjew6kvk_1772139232472.csv,NA,NA,NA,NA,NA,NA,1,0,NA,NA,NA,NA,NA,NA,NA,NA,NA,NA,NA,NA,NA,NA,NA,NA,NA,NA,NA,NA,NA,NA,NA,NA,NA,NA,FALSE
12248,survey-likert,10,11,140050,p0sfjew6kvk,quick,immoral,pony,21,female,NA,NA,"{""j_cert_conflicted_RS"":0,""n_cert_conflicted_RS"":5,""j_cert_reservations_RS"":0,""n_cert_reservations_RS"":4}",NA,"[0,1,2,3]",certainty,/Users/martincz/GitHub/COGS119/group_wi26_moral_character/analysis/../data/raw_data/p0sfjew6kvk_1772139232472.csv,NA,NA,NA,NA,NA,NA,NA,NA,0,5,0,4,NA,NA,NA,NA,NA,NA,NA,NA,NA,NA,NA,NA,NA,NA,NA,NA,NA,NA,NA,NA,NA,NA,FALSE
22433,survey-likert,11,12,162494,p0sfjew6kvk,quick,immoral,pony,21,female,NA,NA,"{""j_cert_quite_certain"":6,""n_cert_quite_certain"":4,""j_cert_far_from_alternative"":5,""n_cert_far_from_alternative"":3}",NA,"[0,1,2,3]",certainty,/Users/martincz/GitHub/COGS119/group_wi26_moral_character/analysis/../data/raw_data/p0sfjew6kvk_1772139232472.csv,NA,NA,NA,NA,NA,NA,NA,NA,NA,NA,NA,NA,6,4,5,3,NA,NA,NA,NA,NA,NA,NA,NA,NA,NA,NA,NA,NA,NA,NA,NA,NA,NA,FALSE
12081,survey-likert,12,13,174588,p0sfjew6kvk,quick,immoral,pony,21,female,NA,NA,"{""j_imp_calm_contained_RS"":6,""n_imp_calm_contained_RS"":4,""j_imp_upset_acted_without_thinking"":1,""n_imp_upset_acted_without_thinking"":1}",NA,"[0,1,2,3]",emotional_impulsivity,/Users/martincz/GitHub/COGS119/group_wi26_moral_character/analysis/../data/raw_data/p0sfjew6kvk_1772139232472.csv,NA,NA,NA,NA,NA,NA,NA,NA,NA,NA,NA,NA,NA,NA,NA,NA,6,4,1,1,NA,NA,NA,NA,NA,NA,NA,NA,NA,NA,NA,NA,NA,NA,FALSE
4901,html-button-response,13,14,179499,p0sfjew6kvk,quick,immoral,pony,21,female,NA,"<p> The next day, B was leaving the local grocery store when they also spotted a lost wallet next to their car.</p><p> Upon picking up the wallet and looking inside, B found several hundred dollars in cash. </p>",0,NA,NA,NA,/Users/martincz/GitHub/COGS119/group_wi26_moral_character/analysis/../data/raw_data/p0sfjew6kvk_1772139232472.csv,NA,NA,NA,NA,NA,NA,NA,NA,NA,NA,NA,NA,NA,NA,NA,NA,NA,NA,NA,NA,NA,NA,NA,NA,NA,NA,NA,NA,NA,NA,NA,NA,NA,NA,FALSE
5155,html-button-response,14,15,184656,p0sfjew6kvk,quick,immoral,pony,21,female,NA,<p> B saw their decision as an easy one and was <i> able to decide quickly </i>. B left the wallet where they found it and drove off. </i></p>,0,byst_scenario_quick,NA,NA,/Users/martincz/GitHub/COGS119/group_wi26_moral_character/analysis/../data/raw_data/p0sfjew6kvk_1772139232472.csv,NA,NA,NA,NA,NA,NA,NA,NA,NA,NA,NA,NA,NA,NA,NA,NA,NA,NA,NA,NA,NA,NA,NA,NA,NA,NA,NA,NA,NA,NA,NA,NA,NA,NA,FALSE
4633,survey-likert,15,16,189291,p0sfjew6kvk,quick,immoral,pony,21,female,NA,NA,"{""b_principles_eval"":5}",NA,[0],byst_principles,/Users/martincz/GitHub/COGS119/group_wi26_moral_character/analysis/../data/raw_data/p0sfjew6kvk_1772139232472.csv,NA,NA,NA,NA,NA,NA,NA,NA,NA,NA,NA,NA,NA,NA,NA,NA,NA,NA,NA,NA,5,NA,NA,NA,NA,NA,NA,NA,NA,NA,NA,NA,NA,NA,FALSE
3145,survey-likert,16,17,192438,p0sfjew6kvk,quick,immoral,pony,21,female,NA,NA,"{""b_standards_eval"":5}",NA,[0],byst_standards,/Users/martincz/GitHub/COGS119/group_wi26_moral_character/analysis/../data/raw_data/p0sfjew6kvk_1772139232472.csv,NA,NA,NA,NA,NA,NA,NA,NA,NA,NA,NA,NA,NA,NA,NA,NA,NA,NA,NA,NA,NA,5,NA,NA,NA,NA,NA,NA,NA,NA,NA,NA,NA,NA,FALSE
2090,survey-likert,17,18,194530,p0sfjew6kvk,quick,immoral,pony,21,female,NA,NA,"{""b_deepness_eval"":5}",NA,[0],byst_depth,/Users/martincz/GitHub/COGS119/group_wi26_moral_character/analysis/../data/raw_data/p0sfjew6kvk_1772139232472.csv,NA,NA,NA,NA,NA,NA,NA,NA,NA,NA,NA,NA,NA,NA,NA,NA,NA,NA,NA,NA,NA,NA,5,NA,NA,NA,NA,NA,NA,NA,NA,NA,NA,NA,FALSE
29401,survey-likert,18,19,223942,p0sfjew6kvk,quick,immoral,pony,21,female,NA,NA,"{""B_cert_conflicted_RS"":0,""B_cert_far_from_alternative"":5,""B_cert_quite_certain"":4,""B_cert_reservations_RS"":0}",NA,"[0,3,2,1]",byst_certainty,/Users/martincz/GitHub/COGS119/group_wi26_moral_character/analysis/../data/raw_data/p0sfjew6kvk_1772139232472.csv,NA,NA,NA,NA,NA,NA,NA,NA,NA,NA,NA,NA,NA,NA,NA,NA,NA,NA,NA,NA,NA,NA,NA,NA,NA,0,4,5,0,NA,NA,NA,NA,NA,FALSE
7517,survey-likert,19,20,231472,p0sfjew6kvk,quick,immoral,pony,21,female,NA,NA,"{""b_imp_upset_acted_without_thinking"":0,""b_imp_calm_contained_RS"":5}",NA,"[1,0]",byst_emotional_impulsivity,/Users/martincz/GitHub/COGS119/group_wi26_moral_character/analysis/../data/raw_data/p0sfjew6kvk_1772139232472.csv,NA,NA,NA,NA,NA,NA,NA,NA,NA,NA,NA,NA,NA,NA,NA,NA,NA,NA,NA,NA,NA,NA,NA,5,0,NA,NA,NA,NA,NA,NA,NA,NA,NA,FALSE
3174,survey-text,20,21,234663,p0sfjew6kvk,quick,immoral,pony,21,female,NA,NA,"{""participant_age"":""21""}",NA,NA,NA,/Users/martincz/GitHub/COGS119/group_wi26_moral_character/analysis/../data/raw_data/p0sfjew6kvk_1772139232472.csv,NA,NA,NA,NA,NA,NA,NA,NA,NA,NA,NA,NA,NA,NA,NA,NA,NA,NA,NA,NA,NA,NA,NA,NA,NA,NA,NA,NA,NA,NA,NA,NA,NA,NA,FALSE
3820,survey-text,21,22,238489,p0sfjew6kvk,quick,immoral,pony,21,female,NA,NA,"{""gender"":""female""}",NA,NA,NA,/Users/martincz/GitHub/COGS119/group_wi26_moral_character/analysis/../data/raw_data/p0sfjew6kvk_1772139232472.csv,NA,NA,NA,NA,NA,NA,NA,NA,NA,NA,NA,NA,NA,NA,NA,NA,NA,NA,NA,NA,NA,NA,NA,NA,NA,NA,NA,NA,NA,NA,NA,NA,NA,NA,FALSE
19452,survey-likert,22,23,257943,p0sfjew6kvk,quick,immoral,pony,21,female,NA,NA,"{""ma_think_through"":5,""ma_gut_feelings"":6,""ma_character_reflective"":5,""ma_some_actions_wrong"":4,""ma_outcomes_matter"":4}",NA,"[1,0,4,3,2]",moral_attitudes,/Users/martincz/GitHub/COGS119/group_wi26_moral_character/analysis/../data/raw_data/p0sfjew6kvk_1772139232472.csv,NA,NA,NA,NA,NA,NA,NA,NA,NA,NA,NA,NA,NA,NA,NA,NA,NA,NA,NA,NA,NA,NA,NA,NA,NA,NA,NA,NA,NA,6,5,4,4,5,FALSE
5255,survey-text,23,24,263213,p0sfjew6kvk,quick,immoral,pony,21,female,NA,NA,"{""Q0"":""moral dilemmas""}",NA,NA,NA,/Users/martincz/GitHub/COGS119/group_wi26_moral_character/analysis/../data/raw_data/p0sfjew6kvk_1772139232472.csv,NA,NA,NA,NA,NA,NA,NA,NA,NA,NA,NA,NA,NA,NA,NA,NA,NA,NA,NA,NA,NA,NA,NA,NA,NA,NA,NA,NA,NA,NA,NA,NA,NA,NA,FALSE
1786,fullscreen,0,1,2791,p2956xcvuq2,quick,immoral,otter,21,female,NA,NA,NA,NA,NA,NA,/Users/martincz/GitHub/COGS119/group_wi26_moral_character/analysis/../data/raw_data/p2956xcvuq2_1772139916652.csv,NA,NA,NA,NA,NA,NA,NA,NA,NA,NA,NA,NA,NA,NA,NA,NA,NA,NA,NA,NA,NA,NA,NA,NA,NA,NA,NA,NA,NA,NA,NA,NA,NA,NA,FALSE
1308,html-keyboard-response,1,2,4099,p2956xcvuq2,quick,immoral,otter,21,female,NA,Welcome to the experiment. Press any key to begin.,n,NA,NA,NA,/Users/martincz/GitHub/COGS119/group_wi26_moral_character/analysis/../data/raw_data/p2956xcvuq2_1772139916652.csv,NA,NA,NA,NA,NA,NA,NA,NA,NA,NA,NA,NA,NA,NA,NA,NA,NA,NA,NA,NA,NA,NA,NA,NA,NA,NA,NA,NA,NA,NA,NA,NA,NA,NA,FALSE
1837,survey-text,2,3,5938,p2956xcvuq2,quick,immoral,otter,21,female,NA,NA,"{""participant_id"":""otter""}",NA,NA,NA,/Users/martincz/GitHub/COGS119/group_wi26_moral_character/analysis/../data/raw_data/p2956xcvuq2_1772139916652.csv,NA,NA,NA,NA,NA,NA,NA,NA,NA,NA,NA,NA,NA,NA,NA,NA,NA,NA,NA,NA,NA,NA,NA,NA,NA,NA,NA,NA,NA,NA,NA,NA,NA,NA,FALSE
3248,html-keyboard-response,3,4,9187,p2956xcvuq2,quick,immoral,otter,21,female,NA,"
   <p>In this experiment, you will be presented with potential scenarios.</p><p>Please read through these carefully.</p>
   <p>You will answer a series of questions afterwards.</p>
   <p>Press any key to begin.</p>
",m,NA,NA,NA,/Users/martincz/GitHub/COGS119/group_wi26_moral_character/analysis/../data/raw_data/p2956xcvuq2_1772139916652.csv,NA,NA,NA,NA,NA,NA,NA,NA,NA,NA,NA,NA,NA,NA,NA,NA,NA,NA,NA,NA,NA,NA,NA,NA,NA,NA,NA,NA,NA,NA,NA,NA,NA,NA,FALSE
20595,html-button-response,4,5,29783,p2956xcvuq2,quick,immoral,otter,21,female,NA,"<p>Two people, J and N, were walking to separate cars in the parking lot of Andronico's, a local grocery store, where they each spotted a different lost wallet next to the cars.</p><p> Upon picking up the wallet and looking inside, each found several hundred dollars in cash. Each person considered whether they should return the wallet and money to the Customer Service desk at Andronico's, or pocket the money and drive away.</p>",0,NA,NA,NA,/Users/martincz/GitHub/COGS119/group_wi26_moral_character/analysis/../data/raw_data/p2956xcvuq2_1772139916652.csv,NA,NA,NA,NA,NA,NA,NA,NA,NA,NA,NA,NA,NA,NA,NA,NA,NA,NA,NA,NA,NA,NA,NA,NA,NA,NA,NA,NA,NA,NA,NA,NA,NA,NA,FALSE
11454,html-button-response,5,6,41238,p2956xcvuq2,quick,immoral,otter,21,female,NA,"<p> J saw their decision as an easy one and was <i> able to decide quickly. J pocketed the money and drove off. </i></p><p> In contrast, N saw their decision as difficult and <i> was only able to decide after long and careful deliberation</i>. After several minutes of thinking in their car, <i> N too decided to pocket the money and drive off.</i></p>",0,immoral_stimulus_1,NA,NA,/Users/martincz/GitHub/COGS119/group_wi26_moral_character/analysis/../data/raw_data/p2956xcvuq2_1772139916652.csv,NA,NA,NA,NA,NA,NA,NA,NA,NA,NA,NA,NA,NA,NA,NA,NA,NA,NA,NA,NA,NA,NA,NA,NA,NA,NA,NA,NA,NA,NA,NA,NA,NA,NA,FALSE
11455,survey-likert,6,7,52694,p2956xcvuq2,quick,immoral,otter,21,female,NA,NA,"{""n_manipulation_check"":6,""j_manipulation_check"":1}",NA,"[1,0]",NA,/Users/martincz/GitHub/COGS119/group_wi26_moral_character/analysis/../data/raw_data/p2956xcvuq2_1772139916652.csv,1,6,NA,NA,NA,NA,NA,NA,NA,NA,NA,NA,NA,NA,NA,NA,NA,NA,NA,NA,NA,NA,NA,NA,NA,NA,NA,NA,NA,NA,NA,NA,NA,NA,FALSE
43976,survey-likert,7,8,96672,p2956xcvuq2,quick,immoral,otter,21,female,NA,NA,"{""j_principles_eval"":1,""n_principles_eval"":2}",NA,"[0,1]",principles,/Users/martincz/GitHub/COGS119/group_wi26_moral_character/analysis/../data/raw_data/p2956xcvuq2_1772139916652.csv,NA,NA,2,1,NA,NA,NA,NA,NA,NA,NA,NA,NA,NA,NA,NA,NA,NA,NA,NA,NA,NA,NA,NA,NA,NA,NA,NA,NA,NA,NA,NA,NA,NA,FALSE
16418,survey-likert,8,9,113090,p2956xcvuq2,quick,immoral,otter,21,female,NA,NA,"{""j_standards_eval"":1,""n_standards_eval"":2}",NA,"[0,1]",standards,/Users/martincz/GitHub/COGS119/group_wi26_moral_character/analysis/../data/raw_data/p2956xcvuq2_1772139916652.csv,NA,NA,NA,NA,2,1,NA,NA,NA,NA,NA,NA,NA,NA,NA,NA,NA,NA,NA,NA,NA,NA,NA,NA,NA,NA,NA,NA,NA,NA,NA,NA,NA,NA,FALSE
20935,survey-likert,9,10,134026,p2956xcvuq2,quick,immoral,otter,21,female,NA,NA,"{""n_deepness_eval"":4,""j_deepness_eval"":2}",NA,"[1,0]",depth,/Users/martincz/GitHub/COGS119/group_wi26_moral_character/analysis/../data/raw_data/p2956xcvuq2_1772139916652.csv,NA,NA,NA,NA,NA,NA,4,2,NA,NA,NA,NA,NA,NA,NA,NA,NA,NA,NA,NA,NA,NA,NA,NA,NA,NA,NA,NA,NA,NA,NA,NA,NA,NA,FALSE
19228,survey-likert,10,11,153256,p2956xcvuq2,quick,immoral,otter,21,female,NA,NA,"{""j_cert_conflicted_RS"":0,""n_cert_conflicted_RS"":6,""j_cert_reservations_RS"":0,""n_cert_reservations_RS"":5}",NA,"[0,1,2,3]",certainty,/Users/martincz/GitHub/COGS119/group_wi26_moral_character/analysis/../data/raw_data/p2956xcvuq2_1772139916652.csv,NA,NA,NA,NA,NA,NA,NA,NA,0,6,0,5,NA,NA,NA,NA,NA,NA,NA,NA,NA,NA,NA,NA,NA,NA,NA,NA,NA,NA,NA,NA,NA,NA,FALSE
13954,survey-likert,11,12,167212,p2956xcvuq2,quick,immoral,otter,21,female,NA,NA,"{""j_cert_quite_certain"":6,""n_cert_quite_certain"":1,""j_cert_far_from_alternative"":0,""n_cert_far_from_alternative"":4}",NA,"[0,1,2,3]",certainty,/Users/martincz/GitHub/COGS119/group_wi26_moral_character/analysis/../data/raw_data/p2956xcvuq2_1772139916652.csv,NA,NA,NA,NA,NA,NA,NA,NA,NA,NA,NA,NA,6,1,0,4,NA,NA,NA,NA,NA,NA,NA,NA,NA,NA,NA,NA,NA,NA,NA,NA,NA,NA,FALSE
13882,survey-likert,12,13,181094,p2956xcvuq2,quick,immoral,otter,21,female,NA,NA,"{""j_imp_calm_contained_RS"":6,""n_imp_calm_contained_RS"":2,""j_imp_upset_acted_without_thinking"":0,""n_imp_upset_acted_without_thinking"":0}",NA,"[0,1,2,3]",emotional_impulsivity,/Users/martincz/GitHub/COGS119/group_wi26_moral_character/analysis/../data/raw_data/p2956xcvuq2_1772139916652.csv,NA,NA,NA,NA,NA,NA,NA,NA,NA,NA,NA,NA,NA,NA,NA,NA,6,2,0,0,NA,NA,NA,NA,NA,NA,NA,NA,NA,NA,NA,NA,NA,NA,FALSE
5394,html-button-response,13,14,186489,p2956xcvuq2,quick,immoral,otter,21,female,NA,"<p> The next day, B was leaving the local grocery store when they also spotted a lost wallet next to their car.</p><p> Upon picking up the wallet and looking inside, B found several hundred dollars in cash. </p>",0,NA,NA,NA,/Users/martincz/GitHub/COGS119/group_wi26_moral_character/analysis/../data/raw_data/p2956xcvuq2_1772139916652.csv,NA,NA,NA,NA,NA,NA,NA,NA,NA,NA,NA,NA,NA,NA,NA,NA,NA,NA,NA,NA,NA,NA,NA,NA,NA,NA,NA,NA,NA,NA,NA,NA,NA,NA,FALSE
3749,html-button-response,14,15,190239,p2956xcvuq2,quick,immoral,otter,21,female,NA,<p> B saw their decision as an easy one and was <i> able to decide quickly </i>. B left the wallet where they found it and drove off. </i></p>,0,byst_scenario_quick,NA,NA,/Users/martincz/GitHub/COGS119/group_wi26_moral_character/analysis/../data/raw_data/p2956xcvuq2_1772139916652.csv,NA,NA,NA,NA,NA,NA,NA,NA,NA,NA,NA,NA,NA,NA,NA,NA,NA,NA,NA,NA,NA,NA,NA,NA,NA,NA,NA,NA,NA,NA,NA,NA,NA,NA,FALSE
7572,survey-likert,15,16,197811,p2956xcvuq2,quick,immoral,otter,21,female,NA,NA,"{""b_principles_eval"":6}",NA,[0],byst_principles,/Users/martincz/GitHub/COGS119/group_wi26_moral_character/analysis/../data/raw_data/p2956xcvuq2_1772139916652.csv,NA,NA,NA,NA,NA,NA,NA,NA,NA,NA,NA,NA,NA,NA,NA,NA,NA,NA,NA,NA,6,NA,NA,NA,NA,NA,NA,NA,NA,NA,NA,NA,NA,NA,FALSE
10842,survey-likert,16,17,208654,p2956xcvuq2,quick,immoral,otter,21,female,NA,NA,"{""b_standards_eval"":6}",NA,[0],byst_standards,/Users/martincz/GitHub/COGS119/group_wi26_moral_character/analysis/../data/raw_data/p2956xcvuq2_1772139916652.csv,NA,NA,NA,NA,NA,NA,NA,NA,NA,NA,NA,NA,NA,NA,NA,NA,NA,NA,NA,NA,NA,6,NA,NA,NA,NA,NA,NA,NA,NA,NA,NA,NA,NA,FALSE
5544,survey-likert,17,18,214199,p2956xcvuq2,quick,immoral,otter,21,female,NA,NA,"{""b_deepness_eval"":5}",NA,[0],byst_depth,/Users/martincz/GitHub/COGS119/group_wi26_moral_character/analysis/../data/raw_data/p2956xcvuq2_1772139916652.csv,NA,NA,NA,NA,NA,NA,NA,NA,NA,NA,NA,NA,NA,NA,NA,NA,NA,NA,NA,NA,NA,NA,5,NA,NA,NA,NA,NA,NA,NA,NA,NA,NA,NA,FALSE
14755,survey-likert,18,19,228954,p2956xcvuq2,quick,immoral,otter,21,female,NA,NA,"{""B_cert_quite_certain"":6,""B_cert_conflicted_RS"":0,""B_cert_far_from_alternative"":0,""B_cert_reservations_RS"":0}",NA,"[2,0,3,1]",byst_certainty,/Users/martincz/GitHub/COGS119/group_wi26_moral_character/analysis/../data/raw_data/p2956xcvuq2_1772139916652.csv,NA,NA,NA,NA,NA,NA,NA,NA,NA,NA,NA,NA,NA,NA,NA,NA,NA,NA,NA,NA,NA,NA,NA,NA,NA,0,6,0,0,NA,NA,NA,NA,NA,FALSE
5629,survey-likert,19,20,234584,p2956xcvuq2,quick,immoral,otter,21,female,NA,NA,"{""b_imp_upset_acted_without_thinking"":0,""b_imp_calm_contained_RS"":6}",NA,"[1,0]",byst_emotional_impulsivity,/Users/martincz/GitHub/COGS119/group_wi26_moral_character/analysis/../data/raw_data/p2956xcvuq2_1772139916652.csv,NA,NA,NA,NA,NA,NA,NA,NA,NA,NA,NA,NA,NA,NA,NA,NA,NA,NA,NA,NA,NA,NA,NA,6,0,NA,NA,NA,NA,NA,NA,NA,NA,NA,FALSE
2455,survey-text,20,21,237040,p2956xcvuq2,quick,immoral,otter,21,female,NA,NA,"{""participant_age"":""21""}",NA,NA,NA,/Users/martincz/GitHub/COGS119/group_wi26_moral_character/analysis/../data/raw_data/p2956xcvuq2_1772139916652.csv,NA,NA,NA,NA,NA,NA,NA,NA,NA,NA,NA,NA,NA,NA,NA,NA,NA,NA,NA,NA,NA,NA,NA,NA,NA,NA,NA,NA,NA,NA,NA,NA,NA,NA,FALSE
3726,survey-text,21,22,240768,p2956xcvuq2,quick,immoral,otter,21,female,NA,NA,"{""gender"":""female""}",NA,NA,NA,/Users/martincz/GitHub/COGS119/group_wi26_moral_character/analysis/../data/raw_data/p2956xcvuq2_1772139916652.csv,NA,NA,NA,NA,NA,NA,NA,NA,NA,NA,NA,NA,NA,NA,NA,NA,NA,NA,NA,NA,NA,NA,NA,NA,NA,NA,NA,NA,NA,NA,NA,NA,NA,NA,FALSE
37960,survey-likert,22,23,278729,p2956xcvuq2,quick,immoral,otter,21,female,NA,NA,"{""ma_think_through"":6,""ma_outcomes_matter"":5,""ma_character_reflective"":4,""ma_gut_feelings"":4,""ma_some_actions_wrong"":2}",NA,"[1,2,4,0,3]",moral_attitudes,/Users/martincz/GitHub/COGS119/group_wi26_moral_character/analysis/../data/raw_data/p2956xcvuq2_1772139916652.csv,NA,NA,NA,NA,NA,NA,NA,NA,NA,NA,NA,NA,NA,NA,NA,NA,NA,NA,NA,NA,NA,NA,NA,NA,NA,NA,NA,NA,NA,4,4,5,2,6,FALSE
4984,survey-text,23,24,283714,p2956xcvuq2,quick,immoral,otter,21,female,NA,NA,"{""Q0"":""n/a""}",NA,NA,NA,/Users/martincz/GitHub/COGS119/group_wi26_moral_character/analysis/../data/raw_data/p2956xcvuq2_1772139916652.csv,NA,NA,NA,NA,NA,NA,NA,NA,NA,NA,NA,NA,NA,NA,NA,NA,NA,NA,NA,NA,NA,NA,NA,NA,NA,NA,NA,NA,NA,NA,NA,NA,NA,NA,FALSE
1570,fullscreen,0,1,2578,p2pjbvjx0eq,slow,immoral,wallaby,22,female,NA,NA,NA,NA,NA,NA,/Users/martincz/GitHub/COGS119/group_wi26_moral_character/analysis/../data/raw_data/p2pjbvjx0eq_1772139864103.csv,NA,NA,NA,NA,NA,NA,NA,NA,NA,NA,NA,NA,NA,NA,NA,NA,NA,NA,NA,NA,NA,NA,NA,NA,NA,NA,NA,NA,NA,NA,NA,NA,NA,NA,FALSE
1273,html-keyboard-response,1,2,3853,p2pjbvjx0eq,slow,immoral,wallaby,22,female,NA,Welcome to the experiment. Press any key to begin.,k,NA,NA,NA,/Users/martincz/GitHub/COGS119/group_wi26_moral_character/analysis/../data/raw_data/p2pjbvjx0eq_1772139864103.csv,NA,NA,NA,NA,NA,NA,NA,NA,NA,NA,NA,NA,NA,NA,NA,NA,NA,NA,NA,NA,NA,NA,NA,NA,NA,NA,NA,NA,NA,NA,NA,NA,NA,NA,FALSE
4267,survey-text,2,3,8124,p2pjbvjx0eq,slow,immoral,wallaby,22,female,NA,NA,"{""participant_id"":""wallaby""}",NA,NA,NA,/Users/martincz/GitHub/COGS119/group_wi26_moral_character/analysis/../data/raw_data/p2pjbvjx0eq_1772139864103.csv,NA,NA,NA,NA,NA,NA,NA,NA,NA,NA,NA,NA,NA,NA,NA,NA,NA,NA,NA,NA,NA,NA,NA,NA,NA,NA,NA,NA,NA,NA,NA,NA,NA,NA,FALSE
33321,html-keyboard-response,3,4,41446,p2pjbvjx0eq,slow,immoral,wallaby,22,female,NA,"
   <p>In this experiment, you will be presented with potential scenarios.</p><p>Please read through these carefully.</p>
   <p>You will answer a series of questions afterwards.</p>
   <p>Press any key to begin.</p>
",j,NA,NA,NA,/Users/martincz/GitHub/COGS119/group_wi26_moral_character/analysis/../data/raw_data/p2pjbvjx0eq_1772139864103.csv,NA,NA,NA,NA,NA,NA,NA,NA,NA,NA,NA,NA,NA,NA,NA,NA,NA,NA,NA,NA,NA,NA,NA,NA,NA,NA,NA,NA,NA,NA,NA,NA,NA,NA,FALSE
43726,html-button-response,4,5,85173,p2pjbvjx0eq,slow,immoral,wallaby,22,female,NA,"<p>Two people, J and N, were walking to separate cars in the parking lot of Andronico's, a local grocery store, where they each spotted a different lost wallet next to the cars.</p><p> Upon picking up the wallet and looking inside, each found several hundred dollars in cash. Each person considered whether they should return the wallet and money to the Customer Service desk at Andronico's, or pocket the money and drive away.</p>",0,NA,NA,NA,/Users/martincz/GitHub/COGS119/group_wi26_moral_character/analysis/../data/raw_data/p2pjbvjx0eq_1772139864103.csv,NA,NA,NA,NA,NA,NA,NA,NA,NA,NA,NA,NA,NA,NA,NA,NA,NA,NA,NA,NA,NA,NA,NA,NA,NA,NA,NA,NA,NA,NA,NA,NA,NA,NA,FALSE
37715,html-button-response,5,6,122889,p2pjbvjx0eq,slow,immoral,wallaby,22,female,NA,"<p> N saw their decision as difficult and <i> was only able to decide after long and careful deliberation</i>. After several minutes of thinking in their car, <i> they decided to pocket the money and drive off.</i></p><p> In contrast, J saw their decision as an easy one and was <i> able to decide quickly. J too pocketed the money and drove off. </i></p>",0,immoral_stimulus_2,NA,NA,/Users/martincz/GitHub/COGS119/group_wi26_moral_character/analysis/../data/raw_data/p2pjbvjx0eq_1772139864103.csv,NA,NA,NA,NA,NA,NA,NA,NA,NA,NA,NA,NA,NA,NA,NA,NA,NA,NA,NA,NA,NA,NA,NA,NA,NA,NA,NA,NA,NA,NA,NA,NA,NA,NA,FALSE
41317,survey-likert,6,7,164207,p2pjbvjx0eq,slow,immoral,wallaby,22,female,NA,NA,"{""j_manipulation_check"":6,""n_manipulation_check"":0}",NA,"[0,1]",NA,/Users/martincz/GitHub/COGS119/group_wi26_moral_character/analysis/../data/raw_data/p2pjbvjx0eq_1772139864103.csv,6,0,NA,NA,NA,NA,NA,NA,NA,NA,NA,NA,NA,NA,NA,NA,NA,NA,NA,NA,NA,NA,NA,NA,NA,NA,NA,NA,NA,NA,NA,NA,NA,NA,FALSE
75732,survey-likert,7,8,239941,p2pjbvjx0eq,slow,immoral,wallaby,22,female,NA,NA,"{""n_principles_eval"":2,""j_principles_eval"":0}",NA,"[1,0]",principles,/Users/martincz/GitHub/COGS119/group_wi26_moral_character/analysis/../data/raw_data/p2pjbvjx0eq_1772139864103.csv,NA,NA,2,0,NA,NA,NA,NA,NA,NA,NA,NA,NA,NA,NA,NA,NA,NA,NA,NA,NA,NA,NA,NA,NA,NA,NA,NA,NA,NA,NA,NA,NA,NA,FALSE
51932,survey-likert,8,9,291867,p2pjbvjx0eq,slow,immoral,wallaby,22,female,NA,NA,"{""j_standards_eval"":0,""n_standards_eval"":2}",NA,"[0,1]",standards,/Users/martincz/GitHub/COGS119/group_wi26_moral_character/analysis/../data/raw_data/p2pjbvjx0eq_1772139864103.csv,NA,NA,NA,NA,2,0,NA,NA,NA,NA,NA,NA,NA,NA,NA,NA,NA,NA,NA,NA,NA,NA,NA,NA,NA,NA,NA,NA,NA,NA,NA,NA,NA,NA,FALSE
49515,survey-likert,9,10,341365,p2pjbvjx0eq,slow,immoral,wallaby,22,female,NA,NA,"{""n_deepness_eval"":3,""j_deepness_eval"":0}",NA,"[1,0]",depth,/Users/martincz/GitHub/COGS119/group_wi26_moral_character/analysis/../data/raw_data/p2pjbvjx0eq_1772139864103.csv,NA,NA,NA,NA,NA,NA,3,0,NA,NA,NA,NA,NA,NA,NA,NA,NA,NA,NA,NA,NA,NA,NA,NA,NA,NA,NA,NA,NA,NA,NA,NA,NA,NA,FALSE
53733,survey-likert,10,11,395099,p2pjbvjx0eq,slow,immoral,wallaby,22,female,NA,NA,"{""j_cert_conflicted_RS"":0,""n_cert_conflicted_RS"":5,""j_cert_reservations_RS"":0,""n_cert_reservations_RS"":5}",NA,"[0,1,2,3]",certainty,/Users/martincz/GitHub/COGS119/group_wi26_moral_character/analysis/../data/raw_data/p2pjbvjx0eq_1772139864103.csv,NA,NA,NA,NA,NA,NA,NA,NA,0,5,0,5,NA,NA,NA,NA,NA,NA,NA,NA,NA,NA,NA,NA,NA,NA,NA,NA,NA,NA,NA,NA,NA,NA,FALSE
152566,survey-likert,11,12,547663,p2pjbvjx0eq,slow,immoral,wallaby,22,female,NA,NA,"{""j_cert_quite_certain"":6,""n_cert_quite_certain"":0,""j_cert_far_from_alternative"":6,""n_cert_far_from_alternative"":1}",NA,"[0,1,2,3]",certainty,/Users/martincz/GitHub/COGS119/group_wi26_moral_character/analysis/../data/raw_data/p2pjbvjx0eq_1772139864103.csv,NA,NA,NA,NA,NA,NA,NA,NA,NA,NA,NA,NA,6,0,6,1,NA,NA,NA,NA,NA,NA,NA,NA,NA,NA,NA,NA,NA,NA,NA,NA,NA,NA,FALSE
60033,survey-likert,12,13,607697,p2pjbvjx0eq,slow,immoral,wallaby,22,female,NA,NA,"{""j_imp_calm_contained_RS"":6,""n_imp_calm_contained_RS"":0,""j_imp_upset_acted_without_thinking"":0,""n_imp_upset_acted_without_thinking"":6}",NA,"[0,1,2,3]",emotional_impulsivity,/Users/martincz/GitHub/COGS119/group_wi26_moral_character/analysis/../data/raw_data/p2pjbvjx0eq_1772139864103.csv,NA,NA,NA,NA,NA,NA,NA,NA,NA,NA,NA,NA,NA,NA,NA,NA,6,0,0,6,NA,NA,NA,NA,NA,NA,NA,NA,NA,NA,NA,NA,NA,NA,FALSE
23233,html-button-response,13,14,630930,p2pjbvjx0eq,slow,immoral,wallaby,22,female,NA,"<p> The next day, B was leaving the local grocery store when they also spotted a lost wallet next to their car.</p><p> Upon picking up the wallet and looking inside, B found several hundred dollars in cash. </p>",0,NA,NA,NA,/Users/martincz/GitHub/COGS119/group_wi26_moral_character/analysis/../data/raw_data/p2pjbvjx0eq_1772139864103.csv,NA,NA,NA,NA,NA,NA,NA,NA,NA,NA,NA,NA,NA,NA,NA,NA,NA,NA,NA,NA,NA,NA,NA,NA,NA,NA,NA,NA,NA,NA,NA,NA,NA,NA,FALSE
103434,html-button-response,14,15,734362,p2pjbvjx0eq,slow,immoral,wallaby,22,female,NA,"<p> B saw their decision as difficult and <i> was only able to decide after long and careful deliberation</i>. After several minutes of thinking, B decided to leave the wallet where they found it and drove off. </p>",0,byst_scenario_slow,NA,NA,/Users/martincz/GitHub/COGS119/group_wi26_moral_character/analysis/../data/raw_data/p2pjbvjx0eq_1772139864103.csv,NA,NA,NA,NA,NA,NA,NA,NA,NA,NA,NA,NA,NA,NA,NA,NA,NA,NA,NA,NA,NA,NA,NA,NA,NA,NA,NA,NA,NA,NA,NA,NA,NA,NA,FALSE
18316,survey-likert,15,16,752680,p2pjbvjx0eq,slow,immoral,wallaby,22,female,NA,NA,"{""b_standards_eval"":5}",NA,[0],byst_standards,/Users/martincz/GitHub/COGS119/group_wi26_moral_character/analysis/../data/raw_data/p2pjbvjx0eq_1772139864103.csv,NA,NA,NA,NA,NA,NA,NA,NA,NA,NA,NA,NA,NA,NA,NA,NA,NA,NA,NA,NA,NA,5,NA,NA,NA,NA,NA,NA,NA,NA,NA,NA,NA,NA,FALSE
7480,survey-likert,16,17,760161,p2pjbvjx0eq,slow,immoral,wallaby,22,female,NA,NA,"{""b_principles_eval"":5}",NA,[0],byst_principles,/Users/martincz/GitHub/COGS119/group_wi26_moral_character/analysis/../data/raw_data/p2pjbvjx0eq_1772139864103.csv,NA,NA,NA,NA,NA,NA,NA,NA,NA,NA,NA,NA,NA,NA,NA,NA,NA,NA,NA,NA,5,NA,NA,NA,NA,NA,NA,NA,NA,NA,NA,NA,NA,NA,FALSE
31282,survey-likert,17,18,791445,p2pjbvjx0eq,slow,immoral,wallaby,22,female,NA,NA,"{""b_deepness_eval"":6}",NA,[0],byst_depth,/Users/martincz/GitHub/COGS119/group_wi26_moral_character/analysis/../data/raw_data/p2pjbvjx0eq_1772139864103.csv,NA,NA,NA,NA,NA,NA,NA,NA,NA,NA,NA,NA,NA,NA,NA,NA,NA,NA,NA,NA,NA,NA,6,NA,NA,NA,NA,NA,NA,NA,NA,NA,NA,NA,FALSE
38633,survey-likert,18,19,830079,p2pjbvjx0eq,slow,immoral,wallaby,22,female,NA,NA,"{""b_imp_upset_acted_without_thinking"":0,""b_imp_calm_contained_RS"":6}",NA,"[1,0]",byst_emotional_impulsivity,/Users/martincz/GitHub/COGS119/group_wi26_moral_character/analysis/../data/raw_data/p2pjbvjx0eq_1772139864103.csv,NA,NA,NA,NA,NA,NA,NA,NA,NA,NA,NA,NA,NA,NA,NA,NA,NA,NA,NA,NA,NA,NA,NA,6,0,NA,NA,NA,NA,NA,NA,NA,NA,NA,FALSE
30398,survey-likert,19,20,860478,p2pjbvjx0eq,slow,immoral,wallaby,22,female,NA,NA,"{""B_cert_reservations_RS"":6,""B_cert_far_from_alternative"":0,""B_cert_quite_certain"":0,""B_cert_conflicted_RS"":6}",NA,"[1,3,2,0]",byst_certainty,/Users/martincz/GitHub/COGS119/group_wi26_moral_character/analysis/../data/raw_data/p2pjbvjx0eq_1772139864103.csv,NA,NA,NA,NA,NA,NA,NA,NA,NA,NA,NA,NA,NA,NA,NA,NA,NA,NA,NA,NA,NA,NA,NA,NA,NA,6,0,0,6,NA,NA,NA,NA,NA,FALSE
2799,survey-text,20,21,863280,p2pjbvjx0eq,slow,immoral,wallaby,22,female,NA,NA,"{""participant_age"":""22""}",NA,NA,NA,/Users/martincz/GitHub/COGS119/group_wi26_moral_character/analysis/../data/raw_data/p2pjbvjx0eq_1772139864103.csv,NA,NA,NA,NA,NA,NA,NA,NA,NA,NA,NA,NA,NA,NA,NA,NA,NA,NA,NA,NA,NA,NA,NA,NA,NA,NA,NA,NA,NA,NA,NA,NA,NA,NA,FALSE
5796,survey-text,21,22,869078,p2pjbvjx0eq,slow,immoral,wallaby,22,female,NA,NA,"{""gender"":""female""}",NA,NA,NA,/Users/martincz/GitHub/COGS119/group_wi26_moral_character/analysis/../data/raw_data/p2pjbvjx0eq_1772139864103.csv,NA,NA,NA,NA,NA,NA,NA,NA,NA,NA,NA,NA,NA,NA,NA,NA,NA,NA,NA,NA,NA,NA,NA,NA,NA,NA,NA,NA,NA,NA,NA,NA,NA,NA,FALSE
51482,survey-likert,22,23,920561,p2pjbvjx0eq,slow,immoral,wallaby,22,female,NA,NA,"{""ma_character_reflective"":5,""ma_gut_feelings"":4,""ma_think_through"":6,""ma_some_actions_wrong"":5,""ma_outcomes_matter"":1}",NA,"[4,0,1,3,2]",moral_attitudes,/Users/martincz/GitHub/COGS119/group_wi26_moral_character/analysis/../data/raw_data/p2pjbvjx0eq_1772139864103.csv,NA,NA,NA,NA,NA,NA,NA,NA,NA,NA,NA,NA,NA,NA,NA,NA,NA,NA,NA,NA,NA,NA,NA,NA,NA,NA,NA,NA,NA,4,5,1,5,6,FALSE
62549,survey-text,23,24,983111,p2pjbvjx0eq,slow,immoral,wallaby,22,female,NA,NA,"{""Q0"":""I think this experiment was about moral judgment""}",NA,NA,NA,/Users/martincz/GitHub/COGS119/group_wi26_moral_character/analysis/../data/raw_data/p2pjbvjx0eq_1772139864103.csv,NA,NA,NA,NA,NA,NA,NA,NA,NA,NA,NA,NA,NA,NA,NA,NA,NA,NA,NA,NA,NA,NA,NA,NA,NA,NA,NA,NA,NA,NA,NA,NA,NA,NA,FALSE
3531,fullscreen,0,1,4537,p4732xl89nm,quick,immoral,goose,22,male,NA,NA,NA,NA,NA,NA,/Users/martincz/GitHub/COGS119/group_wi26_moral_character/analysis/../data/raw_data/p4732xl89nm_1772138110646.csv,NA,NA,NA,NA,NA,NA,NA,NA,NA,NA,NA,NA,NA,NA,NA,NA,NA,NA,NA,NA,NA,NA,NA,NA,NA,NA,NA,NA,NA,NA,NA,NA,NA,NA,FALSE
2849,html-keyboard-response,1,2,7389,p4732xl89nm,quick,immoral,goose,22,male,NA,Welcome to the experiment. Press any key to begin.,Enter,NA,NA,NA,/Users/martincz/GitHub/COGS119/group_wi26_moral_character/analysis/../data/raw_data/p4732xl89nm_1772138110646.csv,NA,NA,NA,NA,NA,NA,NA,NA,NA,NA,NA,NA,NA,NA,NA,NA,NA,NA,NA,NA,NA,NA,NA,NA,NA,NA,NA,NA,NA,NA,NA,NA,NA,NA,FALSE
3672,survey-text,2,3,11069,p4732xl89nm,quick,immoral,goose,22,male,NA,NA,"{""participant_id"":""goose""}",NA,NA,NA,/Users/martincz/GitHub/COGS119/group_wi26_moral_character/analysis/../data/raw_data/p4732xl89nm_1772138110646.csv,NA,NA,NA,NA,NA,NA,NA,NA,NA,NA,NA,NA,NA,NA,NA,NA,NA,NA,NA,NA,NA,NA,NA,NA,NA,NA,NA,NA,NA,NA,NA,NA,NA,NA,FALSE
8599,html-keyboard-response,3,4,19670,p4732xl89nm,quick,immoral,goose,22,male,NA,"
   <p>In this experiment, you will be presented with potential scenarios.</p><p>Please read through these carefully.</p>
   <p>You will answer a series of questions afterwards.</p>
   <p>Press any key to begin.</p>
",Enter,NA,NA,NA,/Users/martincz/GitHub/COGS119/group_wi26_moral_character/analysis/../data/raw_data/p4732xl89nm_1772138110646.csv,NA,NA,NA,NA,NA,NA,NA,NA,NA,NA,NA,NA,NA,NA,NA,NA,NA,NA,NA,NA,NA,NA,NA,NA,NA,NA,NA,NA,NA,NA,NA,NA,NA,NA,FALSE
11746,html-button-response,4,5,31419,p4732xl89nm,quick,immoral,goose,22,male,NA,"<p>Two people, J and N, were walking to separate cars in the parking lot of Andronico's, a local grocery store, where they each spotted a different lost wallet next to the cars.</p><p> Upon picking up the wallet and looking inside, each found several hundred dollars in cash. Each person considered whether they should return the wallet and money to the Customer Service desk at Andronico's, or pocket the money and drive away.</p>",0,NA,NA,NA,/Users/martincz/GitHub/COGS119/group_wi26_moral_character/analysis/../data/raw_data/p4732xl89nm_1772138110646.csv,NA,NA,NA,NA,NA,NA,NA,NA,NA,NA,NA,NA,NA,NA,NA,NA,NA,NA,NA,NA,NA,NA,NA,NA,NA,NA,NA,NA,NA,NA,NA,NA,NA,NA,FALSE
8997,html-button-response,5,6,40418,p4732xl89nm,quick,immoral,goose,22,male,NA,"<p> J saw their decision as an easy one and was <i> able to decide quickly. J pocketed the money and drove off. </i></p><p> In contrast, N saw their decision as difficult and <i> was only able to decide after long and careful deliberation</i>. After several minutes of thinking in their car, <i> N too decided to pocket the money and drive off.</i></p>",0,immoral_stimulus_1,NA,NA,/Users/martincz/GitHub/COGS119/group_wi26_moral_character/analysis/../data/raw_data/p4732xl89nm_1772138110646.csv,NA,NA,NA,NA,NA,NA,NA,NA,NA,NA,NA,NA,NA,NA,NA,NA,NA,NA,NA,NA,NA,NA,NA,NA,NA,NA,NA,NA,NA,NA,NA,NA,NA,NA,FALSE
10814,survey-likert,6,7,51235,p4732xl89nm,quick,immoral,goose,22,male,NA,NA,"{""j_manipulation_check"":6,""n_manipulation_check"":0}",NA,"[0,1]",NA,/Users/martincz/GitHub/COGS119/group_wi26_moral_character/analysis/../data/raw_data/p4732xl89nm_1772138110646.csv,6,0,NA,NA,NA,NA,NA,NA,NA,NA,NA,NA,NA,NA,NA,NA,NA,NA,NA,NA,NA,NA,NA,NA,NA,NA,NA,NA,NA,NA,NA,NA,NA,NA,FALSE
29147,survey-likert,7,8,80387,p4732xl89nm,quick,immoral,goose,22,male,NA,NA,"{""n_principles_eval"":2,""j_principles_eval"":1}",NA,"[1,0]",principles,/Users/martincz/GitHub/COGS119/group_wi26_moral_character/analysis/../data/raw_data/p4732xl89nm_1772138110646.csv,NA,NA,2,1,NA,NA,NA,NA,NA,NA,NA,NA,NA,NA,NA,NA,NA,NA,NA,NA,NA,NA,NA,NA,NA,NA,NA,NA,NA,NA,NA,NA,NA,NA,FALSE
18079,survey-likert,8,9,98470,p4732xl89nm,quick,immoral,goose,22,male,NA,NA,"{""j_standards_eval"":1,""n_standards_eval"":5}",NA,"[0,1]",standards,/Users/martincz/GitHub/COGS119/group_wi26_moral_character/analysis/../data/raw_data/p4732xl89nm_1772138110646.csv,NA,NA,NA,NA,5,1,NA,NA,NA,NA,NA,NA,NA,NA,NA,NA,NA,NA,NA,NA,NA,NA,NA,NA,NA,NA,NA,NA,NA,NA,NA,NA,NA,NA,FALSE
15044,survey-likert,9,10,113519,p4732xl89nm,quick,immoral,goose,22,male,NA,NA,"{""j_deepness_eval"":0,""n_deepness_eval"":4}",NA,"[0,1]",depth,/Users/martincz/GitHub/COGS119/group_wi26_moral_character/analysis/../data/raw_data/p4732xl89nm_1772138110646.csv,NA,NA,NA,NA,NA,NA,4,0,NA,NA,NA,NA,NA,NA,NA,NA,NA,NA,NA,NA,NA,NA,NA,NA,NA,NA,NA,NA,NA,NA,NA,NA,NA,NA,FALSE
21630,survey-likert,10,11,135155,p4732xl89nm,quick,immoral,goose,22,male,NA,NA,"{""j_cert_conflicted_RS"":0,""n_cert_conflicted_RS"":5,""j_cert_reservations_RS"":0,""n_cert_reservations_RS"":5}",NA,"[0,1,2,3]",certainty,/Users/martincz/GitHub/COGS119/group_wi26_moral_character/analysis/../data/raw_data/p4732xl89nm_1772138110646.csv,NA,NA,NA,NA,NA,NA,NA,NA,0,5,0,5,NA,NA,NA,NA,NA,NA,NA,NA,NA,NA,NA,NA,NA,NA,NA,NA,NA,NA,NA,NA,NA,NA,FALSE
29493,survey-likert,11,12,164653,p4732xl89nm,quick,immoral,goose,22,male,NA,NA,"{""j_cert_quite_certain"":6,""n_cert_quite_certain"":2,""j_cert_far_from_alternative"":6,""n_cert_far_from_alternative"":2}",NA,"[0,1,2,3]",certainty,/Users/martincz/GitHub/COGS119/group_wi26_moral_character/analysis/../data/raw_data/p4732xl89nm_1772138110646.csv,NA,NA,NA,NA,NA,NA,NA,NA,NA,NA,NA,NA,6,2,6,2,NA,NA,NA,NA,NA,NA,NA,NA,NA,NA,NA,NA,NA,NA,NA,NA,NA,NA,FALSE
14029,survey-likert,12,13,178686,p4732xl89nm,quick,immoral,goose,22,male,NA,NA,"{""j_imp_calm_contained_RS"":6,""n_imp_calm_contained_RS"":2,""j_imp_upset_acted_without_thinking"":0,""n_imp_upset_acted_without_thinking"":3}",NA,"[0,1,2,3]",emotional_impulsivity,/Users/martincz/GitHub/COGS119/group_wi26_moral_character/analysis/../data/raw_data/p4732xl89nm_1772138110646.csv,NA,NA,NA,NA,NA,NA,NA,NA,NA,NA,NA,NA,NA,NA,NA,NA,6,2,0,3,NA,NA,NA,NA,NA,NA,NA,NA,NA,NA,NA,NA,NA,NA,FALSE
11964,html-button-response,13,14,190652,p4732xl89nm,quick,immoral,goose,22,male,NA,"<p> The next day, B was leaving the local grocery store when they also spotted a lost wallet next to their car.</p><p> Upon picking up the wallet and looking inside, B found several hundred dollars in cash. </p>",0,NA,NA,NA,/Users/martincz/GitHub/COGS119/group_wi26_moral_character/analysis/../data/raw_data/p4732xl89nm_1772138110646.csv,NA,NA,NA,NA,NA,NA,NA,NA,NA,NA,NA,NA,NA,NA,NA,NA,NA,NA,NA,NA,NA,NA,NA,NA,NA,NA,NA,NA,NA,NA,NA,NA,NA,NA,FALSE
8232,html-button-response,14,15,198886,p4732xl89nm,quick,immoral,goose,22,male,NA,<p> B saw their decision as an easy one and was <i> able to decide quickly </i>. B left the wallet where they found it and drove off. </i></p>,0,byst_scenario_quick,NA,NA,/Users/martincz/GitHub/COGS119/group_wi26_moral_character/analysis/../data/raw_data/p4732xl89nm_1772138110646.csv,NA,NA,NA,NA,NA,NA,NA,NA,NA,NA,NA,NA,NA,NA,NA,NA,NA,NA,NA,NA,NA,NA,NA,NA,NA,NA,NA,NA,NA,NA,NA,NA,NA,NA,FALSE
12647,survey-likert,15,16,211538,p4732xl89nm,quick,immoral,goose,22,male,NA,NA,"{""b_principles_eval"":6}",NA,[0],byst_principles,/Users/martincz/GitHub/COGS119/group_wi26_moral_character/analysis/../data/raw_data/p4732xl89nm_1772138110646.csv,NA,NA,NA,NA,NA,NA,NA,NA,NA,NA,NA,NA,NA,NA,NA,NA,NA,NA,NA,NA,6,NA,NA,NA,NA,NA,NA,NA,NA,NA,NA,NA,NA,NA,FALSE
4394,survey-likert,16,17,215936,p4732xl89nm,quick,immoral,goose,22,male,NA,NA,"{""b_standards_eval"":6}",NA,[0],byst_standards,/Users/martincz/GitHub/COGS119/group_wi26_moral_character/analysis/../data/raw_data/p4732xl89nm_1772138110646.csv,NA,NA,NA,NA,NA,NA,NA,NA,NA,NA,NA,NA,NA,NA,NA,NA,NA,NA,NA,NA,NA,6,NA,NA,NA,NA,NA,NA,NA,NA,NA,NA,NA,NA,FALSE
8614,survey-likert,17,18,224555,p4732xl89nm,quick,immoral,goose,22,male,NA,NA,"{""b_deepness_eval"":6}",NA,[0],byst_depth,/Users/martincz/GitHub/COGS119/group_wi26_moral_character/analysis/../data/raw_data/p4732xl89nm_1772138110646.csv,NA,NA,NA,NA,NA,NA,NA,NA,NA,NA,NA,NA,NA,NA,NA,NA,NA,NA,NA,NA,NA,NA,6,NA,NA,NA,NA,NA,NA,NA,NA,NA,NA,NA,FALSE
19344,survey-likert,18,19,243904,p4732xl89nm,quick,immoral,goose,22,male,NA,NA,"{""B_cert_quite_certain"":6,""B_cert_reservations_RS"":0,""B_cert_far_from_alternative"":6,""B_cert_conflicted_RS"":0}",NA,"[2,1,3,0]",byst_certainty,/Users/martincz/GitHub/COGS119/group_wi26_moral_character/analysis/../data/raw_data/p4732xl89nm_1772138110646.csv,NA,NA,NA,NA,NA,NA,NA,NA,NA,NA,NA,NA,NA,NA,NA,NA,NA,NA,NA,NA,NA,NA,NA,NA,NA,0,6,6,0,NA,NA,NA,NA,NA,FALSE
6529,survey-likert,19,20,250437,p4732xl89nm,quick,immoral,goose,22,male,NA,NA,"{""b_imp_calm_contained_RS"":6,""b_imp_upset_acted_without_thinking"":0}",NA,"[0,1]",byst_emotional_impulsivity,/Users/martincz/GitHub/COGS119/group_wi26_moral_character/analysis/../data/raw_data/p4732xl89nm_1772138110646.csv,NA,NA,NA,NA,NA,NA,NA,NA,NA,NA,NA,NA,NA,NA,NA,NA,NA,NA,NA,NA,NA,NA,NA,6,0,NA,NA,NA,NA,NA,NA,NA,NA,NA,FALSE
3092,survey-text,20,21,253535,p4732xl89nm,quick,immoral,goose,22,male,NA,NA,"{""participant_age"":""22""}",NA,NA,NA,/Users/martincz/GitHub/COGS119/group_wi26_moral_character/analysis/../data/raw_data/p4732xl89nm_1772138110646.csv,NA,NA,NA,NA,NA,NA,NA,NA,NA,NA,NA,NA,NA,NA,NA,NA,NA,NA,NA,NA,NA,NA,NA,NA,NA,NA,NA,NA,NA,NA,NA,NA,NA,NA,FALSE
1886,survey-text,21,22,255423,p4732xl89nm,quick,immoral,goose,22,male,NA,NA,"{""gender"":""male""}",NA,NA,NA,/Users/martincz/GitHub/COGS119/group_wi26_moral_character/analysis/../data/raw_data/p4732xl89nm_1772138110646.csv,NA,NA,NA,NA,NA,NA,NA,NA,NA,NA,NA,NA,NA,NA,NA,NA,NA,NA,NA,NA,NA,NA,NA,NA,NA,NA,NA,NA,NA,NA,NA,NA,NA,NA,FALSE
53244,survey-likert,22,23,308673,p4732xl89nm,quick,immoral,goose,22,male,NA,NA,"{""ma_think_through"":3,""ma_outcomes_matter"":4,""ma_gut_feelings"":6,""ma_some_actions_wrong"":6,""ma_character_reflective"":1}",NA,"[1,2,0,3,4]",moral_attitudes,/Users/martincz/GitHub/COGS119/group_wi26_moral_character/analysis/../data/raw_data/p4732xl89nm_1772138110646.csv,NA,NA,NA,NA,NA,NA,NA,NA,NA,NA,NA,NA,NA,NA,NA,NA,NA,NA,NA,NA,NA,NA,NA,NA,NA,NA,NA,NA,NA,6,1,4,6,3,FALSE
68114,survey-text,23,24,376794,p4732xl89nm,quick,immoral,goose,22,male,NA,NA,"{""Q0"":""something about rating morality from people's actions. One condition with J and N sees if another person's action can affect how moral they are perceived. No issues. Spotted some punctuation errors""}",NA,NA,NA,/Users/martincz/GitHub/COGS119/group_wi26_moral_character/analysis/../data/raw_data/p4732xl89nm_1772138110646.csv,NA,NA,NA,NA,NA,NA,NA,NA,NA,NA,NA,NA,NA,NA,NA,NA,NA,NA,NA,NA,NA,NA,NA,NA,NA,NA,NA,NA,NA,NA,NA,NA,NA,NA,FALSE
6410,fullscreen,0,1,7416,p4s87kqkvfc,slow,immoral,antelope,23,female,NA,NA,NA,NA,NA,NA,/Users/martincz/GitHub/COGS119/group_wi26_moral_character/analysis/../data/raw_data/p4s87kqkvfc_1772141887306.csv,NA,NA,NA,NA,NA,NA,NA,NA,NA,NA,NA,NA,NA,NA,NA,NA,NA,NA,NA,NA,NA,NA,NA,NA,NA,NA,NA,NA,NA,NA,NA,NA,NA,NA,FALSE
1055,html-keyboard-response,1,2,8472,p4s87kqkvfc,slow,immoral,antelope,23,female,NA,Welcome to the experiment. Press any key to begin.,NA,NA,NA,NA,/Users/martincz/GitHub/COGS119/group_wi26_moral_character/analysis/../data/raw_data/p4s87kqkvfc_1772141887306.csv,NA,NA,NA,NA,NA,NA,NA,NA,NA,NA,NA,NA,NA,NA,NA,NA,NA,NA,NA,NA,NA,NA,NA,NA,NA,NA,NA,NA,NA,NA,NA,NA,NA,NA,FALSE
3656,survey-text,2,3,12133,p4s87kqkvfc,slow,immoral,antelope,23,female,NA,NA,"{""participant_id"":""antelope""}",NA,NA,NA,/Users/martincz/GitHub/COGS119/group_wi26_moral_character/analysis/../data/raw_data/p4s87kqkvfc_1772141887306.csv,NA,NA,NA,NA,NA,NA,NA,NA,NA,NA,NA,NA,NA,NA,NA,NA,NA,NA,NA,NA,NA,NA,NA,NA,NA,NA,NA,NA,NA,NA,NA,NA,NA,NA,FALSE
3787,html-keyboard-response,3,4,15921,p4s87kqkvfc,slow,immoral,antelope,23,female,NA,"
   <p>In this experiment, you will be presented with potential scenarios.</p><p>Please read through these carefully.</p>
   <p>You will answer a series of questions afterwards.</p>
   <p>Press any key to begin.</p>
",NA,NA,NA,NA,/Users/martincz/GitHub/COGS119/group_wi26_moral_character/analysis/../data/raw_data/p4s87kqkvfc_1772141887306.csv,NA,NA,NA,NA,NA,NA,NA,NA,NA,NA,NA,NA,NA,NA,NA,NA,NA,NA,NA,NA,NA,NA,NA,NA,NA,NA,NA,NA,NA,NA,NA,NA,NA,NA,FALSE
46705,html-button-response,4,5,62630,p4s87kqkvfc,slow,immoral,antelope,23,female,NA,"<p>Two people, J and N, were walking to separate cars in the parking lot of Andronico's, a local grocery store, where they each spotted a different lost wallet next to the cars.</p><p> Upon picking up the wallet and looking inside, each found several hundred dollars in cash. Each person considered whether they should return the wallet and money to the Customer Service desk at Andronico's, or pocket the money and drive away.</p>",0,NA,NA,NA,/Users/martincz/GitHub/COGS119/group_wi26_moral_character/analysis/../data/raw_data/p4s87kqkvfc_1772141887306.csv,NA,NA,NA,NA,NA,NA,NA,NA,NA,NA,NA,NA,NA,NA,NA,NA,NA,NA,NA,NA,NA,NA,NA,NA,NA,NA,NA,NA,NA,NA,NA,NA,NA,NA,FALSE
3566,html-button-response,5,6,66198,p4s87kqkvfc,slow,immoral,antelope,23,female,NA,"<p> J saw their decision as an easy one and was <i> able to decide quickly. J pocketed the money and drove off. </i></p><p> In contrast, N saw their decision as difficult and <i> was only able to decide after long and careful deliberation</i>. After several minutes of thinking in their car, <i> N too decided to pocket the money and drive off.</i></p>",0,immoral_stimulus_1,NA,NA,/Users/martincz/GitHub/COGS119/group_wi26_moral_character/analysis/../data/raw_data/p4s87kqkvfc_1772141887306.csv,NA,NA,NA,NA,NA,NA,NA,NA,NA,NA,NA,NA,NA,NA,NA,NA,NA,NA,NA,NA,NA,NA,NA,NA,NA,NA,NA,NA,NA,NA,NA,NA,NA,NA,FALSE
7130,survey-likert,6,7,73332,p4s87kqkvfc,slow,immoral,antelope,23,female,NA,NA,"{""j_manipulation_check"":4,""n_manipulation_check"":5}",NA,"[0,1]",NA,/Users/martincz/GitHub/COGS119/group_wi26_moral_character/analysis/../data/raw_data/p4s87kqkvfc_1772141887306.csv,4,5,NA,NA,NA,NA,NA,NA,NA,NA,NA,NA,NA,NA,NA,NA,NA,NA,NA,NA,NA,NA,NA,NA,NA,NA,NA,NA,NA,NA,NA,NA,NA,NA,FALSE
8440,survey-likert,7,8,81775,p4s87kqkvfc,slow,immoral,antelope,23,female,NA,NA,"{""j_standards_eval"":6,""n_standards_eval"":4}",NA,"[0,1]",standards,/Users/martincz/GitHub/COGS119/group_wi26_moral_character/analysis/../data/raw_data/p4s87kqkvfc_1772141887306.csv,NA,NA,NA,NA,4,6,NA,NA,NA,NA,NA,NA,NA,NA,NA,NA,NA,NA,NA,NA,NA,NA,NA,NA,NA,NA,NA,NA,NA,NA,NA,NA,NA,NA,FALSE
5348,survey-likert,8,9,87126,p4s87kqkvfc,slow,immoral,antelope,23,female,NA,NA,"{""n_principles_eval"":6,""j_principles_eval"":3}",NA,"[1,0]",principles,/Users/martincz/GitHub/COGS119/group_wi26_moral_character/analysis/../data/raw_data/p4s87kqkvfc_1772141887306.csv,NA,NA,6,3,NA,NA,NA,NA,NA,NA,NA,NA,NA,NA,NA,NA,NA,NA,NA,NA,NA,NA,NA,NA,NA,NA,NA,NA,NA,NA,NA,NA,NA,NA,FALSE
6239,survey-likert,9,10,93367,p4s87kqkvfc,slow,immoral,antelope,23,female,NA,NA,"{""n_deepness_eval"":6,""j_deepness_eval"":4}",NA,"[1,0]",depth,/Users/martincz/GitHub/COGS119/group_wi26_moral_character/analysis/../data/raw_data/p4s87kqkvfc_1772141887306.csv,NA,NA,NA,NA,NA,NA,6,4,NA,NA,NA,NA,NA,NA,NA,NA,NA,NA,NA,NA,NA,NA,NA,NA,NA,NA,NA,NA,NA,NA,NA,NA,NA,NA,FALSE
20452,survey-likert,10,11,113821,p4s87kqkvfc,slow,immoral,antelope,23,female,NA,NA,"{""j_cert_conflicted_RS"":4,""n_cert_conflicted_RS"":3,""j_cert_reservations_RS"":5,""n_cert_reservations_RS"":6}",NA,"[0,1,2,3]",certainty,/Users/martincz/GitHub/COGS119/group_wi26_moral_character/analysis/../data/raw_data/p4s87kqkvfc_1772141887306.csv,NA,NA,NA,NA,NA,NA,NA,NA,4,3,5,6,NA,NA,NA,NA,NA,NA,NA,NA,NA,NA,NA,NA,NA,NA,NA,NA,NA,NA,NA,NA,NA,NA,FALSE
56030,survey-likert,11,12,169854,p4s87kqkvfc,slow,immoral,antelope,23,female,NA,NA,"{""j_cert_quite_certain"":6,""n_cert_quite_certain"":2,""j_cert_far_from_alternative"":3,""n_cert_far_from_alternative"":6}",NA,"[0,1,2,3]",certainty,/Users/martincz/GitHub/COGS119/group_wi26_moral_character/analysis/../data/raw_data/p4s87kqkvfc_1772141887306.csv,NA,NA,NA,NA,NA,NA,NA,NA,NA,NA,NA,NA,6,2,3,6,NA,NA,NA,NA,NA,NA,NA,NA,NA,NA,NA,NA,NA,NA,NA,NA,NA,NA,FALSE
24060,survey-likert,12,13,193918,p4s87kqkvfc,slow,immoral,antelope,23,female,NA,NA,"{""j_imp_calm_contained_RS"":6,""n_imp_calm_contained_RS"":4,""j_imp_upset_acted_without_thinking"":5,""n_imp_upset_acted_without_thinking"":6}",NA,"[0,1,2,3]",emotional_impulsivity,/Users/martincz/GitHub/COGS119/group_wi26_moral_character/analysis/../data/raw_data/p4s87kqkvfc_1772141887306.csv,NA,NA,NA,NA,NA,NA,NA,NA,NA,NA,NA,NA,NA,NA,NA,NA,6,4,5,6,NA,NA,NA,NA,NA,NA,NA,NA,NA,NA,NA,NA,NA,NA,FALSE
6155,html-button-response,13,14,200075,p4s87kqkvfc,slow,immoral,antelope,23,female,NA,"<p> The next day, B was leaving the local grocery store when they also spotted a lost wallet next to their car.</p><p> Upon picking up the wallet and looking inside, B found several hundred dollars in cash. </p>",0,NA,NA,NA,/Users/martincz/GitHub/COGS119/group_wi26_moral_character/analysis/../data/raw_data/p4s87kqkvfc_1772141887306.csv,NA,NA,NA,NA,NA,NA,NA,NA,NA,NA,NA,NA,NA,NA,NA,NA,NA,NA,NA,NA,NA,NA,NA,NA,NA,NA,NA,NA,NA,NA,NA,NA,NA,NA,FALSE
6269,html-button-response,14,15,206345,p4s87kqkvfc,slow,immoral,antelope,23,female,NA,"<p> B saw their decision as difficult and <i> was only able to decide after long and careful deliberation</i>. After several minutes of thinking, B decided to leave the wallet where they found it and drove off. </p>",0,byst_scenario_slow,NA,NA,/Users/martincz/GitHub/COGS119/group_wi26_moral_character/analysis/../data/raw_data/p4s87kqkvfc_1772141887306.csv,NA,NA,NA,NA,NA,NA,NA,NA,NA,NA,NA,NA,NA,NA,NA,NA,NA,NA,NA,NA,NA,NA,NA,NA,NA,NA,NA,NA,NA,NA,NA,NA,NA,NA,FALSE
4506,survey-likert,15,16,210854,p4s87kqkvfc,slow,immoral,antelope,23,female,NA,NA,"{""b_standards_eval"":5}",NA,[0],byst_standards,/Users/martincz/GitHub/COGS119/group_wi26_moral_character/analysis/../data/raw_data/p4s87kqkvfc_1772141887306.csv,NA,NA,NA,NA,NA,NA,NA,NA,NA,NA,NA,NA,NA,NA,NA,NA,NA,NA,NA,NA,NA,5,NA,NA,NA,NA,NA,NA,NA,NA,NA,NA,NA,NA,FALSE
7875,survey-likert,16,17,218731,p4s87kqkvfc,slow,immoral,antelope,23,female,NA,NA,"{""b_principles_eval"":6}",NA,[0],byst_principles,/Users/martincz/GitHub/COGS119/group_wi26_moral_character/analysis/../data/raw_data/p4s87kqkvfc_1772141887306.csv,NA,NA,NA,NA,NA,NA,NA,NA,NA,NA,NA,NA,NA,NA,NA,NA,NA,NA,NA,NA,6,NA,NA,NA,NA,NA,NA,NA,NA,NA,NA,NA,NA,NA,FALSE
6147,survey-likert,17,18,224880,p4s87kqkvfc,slow,immoral,antelope,23,female,NA,NA,"{""b_deepness_eval"":3}",NA,[0],byst_depth,/Users/martincz/GitHub/COGS119/group_wi26_moral_character/analysis/../data/raw_data/p4s87kqkvfc_1772141887306.csv,NA,NA,NA,NA,NA,NA,NA,NA,NA,NA,NA,NA,NA,NA,NA,NA,NA,NA,NA,NA,NA,NA,3,NA,NA,NA,NA,NA,NA,NA,NA,NA,NA,NA,FALSE
27343,survey-likert,18,19,252227,p4s87kqkvfc,slow,immoral,antelope,23,female,NA,NA,"{""B_cert_quite_certain"":6,""B_cert_reservations_RS"":3,""B_cert_conflicted_RS"":4,""B_cert_far_from_alternative"":5}",NA,"[2,1,0,3]",byst_certainty,/Users/martincz/GitHub/COGS119/group_wi26_moral_character/analysis/../data/raw_data/p4s87kqkvfc_1772141887306.csv,NA,NA,NA,NA,NA,NA,NA,NA,NA,NA,NA,NA,NA,NA,NA,NA,NA,NA,NA,NA,NA,NA,NA,NA,NA,4,6,5,3,NA,NA,NA,NA,NA,FALSE
10318,survey-likert,19,20,262547,p4s87kqkvfc,slow,immoral,antelope,23,female,NA,NA,"{""b_imp_upset_acted_without_thinking"":1,""b_imp_calm_contained_RS"":6}",NA,"[1,0]",byst_emotional_impulsivity,/Users/martincz/GitHub/COGS119/group_wi26_moral_character/analysis/../data/raw_data/p4s87kqkvfc_1772141887306.csv,NA,NA,NA,NA,NA,NA,NA,NA,NA,NA,NA,NA,NA,NA,NA,NA,NA,NA,NA,NA,NA,NA,NA,6,1,NA,NA,NA,NA,NA,NA,NA,NA,NA,FALSE
1368,survey-text,20,21,263918,p4s87kqkvfc,slow,immoral,antelope,23,female,NA,NA,"{""participant_age"":""23""}",NA,NA,NA,/Users/martincz/GitHub/COGS119/group_wi26_moral_character/analysis/../data/raw_data/p4s87kqkvfc_1772141887306.csv,NA,NA,NA,NA,NA,NA,NA,NA,NA,NA,NA,NA,NA,NA,NA,NA,NA,NA,NA,NA,NA,NA,NA,NA,NA,NA,NA,NA,NA,NA,NA,NA,NA,NA,FALSE
2027,survey-text,21,22,265948,p4s87kqkvfc,slow,immoral,antelope,23,female,NA,NA,"{""gender"":""female""}",NA,NA,NA,/Users/martincz/GitHub/COGS119/group_wi26_moral_character/analysis/../data/raw_data/p4s87kqkvfc_1772141887306.csv,NA,NA,NA,NA,NA,NA,NA,NA,NA,NA,NA,NA,NA,NA,NA,NA,NA,NA,NA,NA,NA,NA,NA,NA,NA,NA,NA,NA,NA,NA,NA,NA,NA,NA,FALSE
36664,survey-likert,22,23,302615,p4s87kqkvfc,slow,immoral,antelope,23,female,NA,NA,"{""ma_outcomes_matter"":6,""ma_some_actions_wrong"":0,""ma_think_through"":4,""ma_gut_feelings"":4,""ma_character_reflective"":6}",NA,"[2,3,1,0,4]",moral_attitudes,/Users/martincz/GitHub/COGS119/group_wi26_moral_character/analysis/../data/raw_data/p4s87kqkvfc_1772141887306.csv,NA,NA,NA,NA,NA,NA,NA,NA,NA,NA,NA,NA,NA,NA,NA,NA,NA,NA,NA,NA,NA,NA,NA,NA,NA,NA,NA,NA,NA,4,6,6,0,4,FALSE
4303,survey-text,23,24,306921,p4s87kqkvfc,slow,immoral,antelope,23,female,NA,NA,"{""Q0"":""morality""}",NA,NA,NA,/Users/martincz/GitHub/COGS119/group_wi26_moral_character/analysis/../data/raw_data/p4s87kqkvfc_1772141887306.csv,NA,NA,NA,NA,NA,NA,NA,NA,NA,NA,NA,NA,NA,NA,NA,NA,NA,NA,NA,NA,NA,NA,NA,NA,NA,NA,NA,NA,NA,NA,NA,NA,NA,NA,FALSE
1384,fullscreen,0,1,2392,p5a5napt8o8,quick,moral,wolf,20,female,NA,NA,NA,NA,NA,NA,/Users/martincz/GitHub/COGS119/group_wi26_moral_character/analysis/../data/raw_data/p5a5napt8o8_1772140505300.csv,NA,NA,NA,NA,NA,NA,NA,NA,NA,NA,NA,NA,NA,NA,NA,NA,NA,NA,NA,NA,NA,NA,NA,NA,NA,NA,NA,NA,NA,NA,NA,NA,NA,NA,FALSE
1067,html-keyboard-response,1,2,3461,p5a5napt8o8,quick,moral,wolf,20,female,NA,Welcome to the experiment. Press any key to begin.,NA,NA,NA,NA,/Users/martincz/GitHub/COGS119/group_wi26_moral_character/analysis/../data/raw_data/p5a5napt8o8_1772140505300.csv,NA,NA,NA,NA,NA,NA,NA,NA,NA,NA,NA,NA,NA,NA,NA,NA,NA,NA,NA,NA,NA,NA,NA,NA,NA,NA,NA,NA,NA,NA,NA,NA,NA,NA,FALSE
5403,survey-text,2,3,8866,p5a5napt8o8,quick,moral,wolf,20,female,NA,NA,"{""participant_id"":""wolf""}",NA,NA,NA,/Users/martincz/GitHub/COGS119/group_wi26_moral_character/analysis/../data/raw_data/p5a5napt8o8_1772140505300.csv,NA,NA,NA,NA,NA,NA,NA,NA,NA,NA,NA,NA,NA,NA,NA,NA,NA,NA,NA,NA,NA,NA,NA,NA,NA,NA,NA,NA,NA,NA,NA,NA,NA,NA,FALSE
2684,html-keyboard-response,3,4,11551,p5a5napt8o8,quick,moral,wolf,20,female,NA,"
   <p>In this experiment, you will be presented with potential scenarios.</p><p>Please read through these carefully.</p>
   <p>You will answer a series of questions afterwards.</p>
   <p>Press any key to begin.</p>
",NA,NA,NA,NA,/Users/martincz/GitHub/COGS119/group_wi26_moral_character/analysis/../data/raw_data/p5a5napt8o8_1772140505300.csv,NA,NA,NA,NA,NA,NA,NA,NA,NA,NA,NA,NA,NA,NA,NA,NA,NA,NA,NA,NA,NA,NA,NA,NA,NA,NA,NA,NA,NA,NA,NA,NA,NA,NA,FALSE
10562,html-button-response,4,5,22114,p5a5napt8o8,quick,moral,wolf,20,female,NA,"<p>Two people, J and N, were walking to separate cars in the parking lot of Andronico's, a local grocery store, where they each spotted a different lost wallet next to the cars.</p><p> Upon picking up the wallet and looking inside, each found several hundred dollars in cash. Each person considered whether they should return the wallet and money to the Customer Service desk at Andronico's, or pocket the money and drive away.</p>",0,NA,NA,NA,/Users/martincz/GitHub/COGS119/group_wi26_moral_character/analysis/../data/raw_data/p5a5napt8o8_1772140505300.csv,NA,NA,NA,NA,NA,NA,NA,NA,NA,NA,NA,NA,NA,NA,NA,NA,NA,NA,NA,NA,NA,NA,NA,NA,NA,NA,NA,NA,NA,NA,NA,NA,NA,NA,FALSE
10048,html-button-response,5,6,32162,p5a5napt8o8,quick,moral,wolf,20,female,NA,"<p> J saw their decision as an easy one and was <i> able to decide quickly. J did not steal the money </i> and instead left the wallet with Customer Service.</p><p> In contrast, N saw their decision as difficult and <i> was only able to decide after long and careful deliberation</i>. After several minutes of thinking in their car, <i> N too decided not to steal the money </i> and instead left the wallet with customer service. </i><br> </p>",0,moral_stimulus_1,NA,NA,/Users/martincz/GitHub/COGS119/group_wi26_moral_character/analysis/../data/raw_data/p5a5napt8o8_1772140505300.csv,NA,NA,NA,NA,NA,NA,NA,NA,NA,NA,NA,NA,NA,NA,NA,NA,NA,NA,NA,NA,NA,NA,NA,NA,NA,NA,NA,NA,NA,NA,NA,NA,NA,NA,FALSE
8698,survey-likert,6,7,40861,p5a5napt8o8,quick,moral,wolf,20,female,NA,NA,"{""j_manipulation_check"":6,""n_manipulation_check"":0}",NA,"[0,1]",NA,/Users/martincz/GitHub/COGS119/group_wi26_moral_character/analysis/../data/raw_data/p5a5napt8o8_1772140505300.csv,6,0,NA,NA,NA,NA,NA,NA,NA,NA,NA,NA,NA,NA,NA,NA,NA,NA,NA,NA,NA,NA,NA,NA,NA,NA,NA,NA,NA,NA,NA,NA,NA,NA,FALSE
17013,survey-likert,7,8,57875,p5a5napt8o8,quick,moral,wolf,20,female,NA,NA,"{""n_standards_eval"":4,""j_standards_eval"":6}",NA,"[1,0]",standards,/Users/martincz/GitHub/COGS119/group_wi26_moral_character/analysis/../data/raw_data/p5a5napt8o8_1772140505300.csv,NA,NA,NA,NA,4,6,NA,NA,NA,NA,NA,NA,NA,NA,NA,NA,NA,NA,NA,NA,NA,NA,NA,NA,NA,NA,NA,NA,NA,NA,NA,NA,NA,NA,FALSE
16000,survey-likert,8,9,73876,p5a5napt8o8,quick,moral,wolf,20,female,NA,NA,"{""n_principles_eval"":4,""j_principles_eval"":5}",NA,"[1,0]",principles,/Users/martincz/GitHub/COGS119/group_wi26_moral_character/analysis/../data/raw_data/p5a5napt8o8_1772140505300.csv,NA,NA,4,5,NA,NA,NA,NA,NA,NA,NA,NA,NA,NA,NA,NA,NA,NA,NA,NA,NA,NA,NA,NA,NA,NA,NA,NA,NA,NA,NA,NA,NA,NA,FALSE
37196,survey-likert,9,10,111073,p5a5napt8o8,quick,moral,wolf,20,female,NA,NA,"{""j_deepness_eval"":6,""n_deepness_eval"":6}",NA,"[0,1]",depth,/Users/martincz/GitHub/COGS119/group_wi26_moral_character/analysis/../data/raw_data/p5a5napt8o8_1772140505300.csv,NA,NA,NA,NA,NA,NA,6,6,NA,NA,NA,NA,NA,NA,NA,NA,NA,NA,NA,NA,NA,NA,NA,NA,NA,NA,NA,NA,NA,NA,NA,NA,NA,NA,FALSE
11538,survey-likert,10,11,122612,p5a5napt8o8,quick,moral,wolf,20,female,NA,NA,"{""j_cert_conflicted_RS"":0,""n_cert_conflicted_RS"":5,""j_cert_reservations_RS"":0,""n_cert_reservations_RS"":5}",NA,"[0,1,2,3]",certainty,/Users/martincz/GitHub/COGS119/group_wi26_moral_character/analysis/../data/raw_data/p5a5napt8o8_1772140505300.csv,NA,NA,NA,NA,NA,NA,NA,NA,0,5,0,5,NA,NA,NA,NA,NA,NA,NA,NA,NA,NA,NA,NA,NA,NA,NA,NA,NA,NA,NA,NA,NA,NA,FALSE
17142,survey-likert,11,12,139756,p5a5napt8o8,quick,moral,wolf,20,female,NA,NA,"{""j_cert_quite_certain"":6,""n_cert_quite_certain"":0,""j_cert_far_from_alternative"":0,""n_cert_far_from_alternative"":5}",NA,"[0,1,2,3]",certainty,/Users/martincz/GitHub/COGS119/group_wi26_moral_character/analysis/../data/raw_data/p5a5napt8o8_1772140505300.csv,NA,NA,NA,NA,NA,NA,NA,NA,NA,NA,NA,NA,6,0,0,5,NA,NA,NA,NA,NA,NA,NA,NA,NA,NA,NA,NA,NA,NA,NA,NA,NA,NA,FALSE
14748,survey-likert,12,13,154504,p5a5napt8o8,quick,moral,wolf,20,female,NA,NA,"{""j_imp_calm_contained_RS"":4,""n_imp_calm_contained_RS"":2,""j_imp_upset_acted_without_thinking"":0,""n_imp_upset_acted_without_thinking"":0}",NA,"[0,1,2,3]",emotional_impulsivity,/Users/martincz/GitHub/COGS119/group_wi26_moral_character/analysis/../data/raw_data/p5a5napt8o8_1772140505300.csv,NA,NA,NA,NA,NA,NA,NA,NA,NA,NA,NA,NA,NA,NA,NA,NA,4,2,0,0,NA,NA,NA,NA,NA,NA,NA,NA,NA,NA,NA,NA,NA,NA,FALSE
4284,html-button-response,13,14,158789,p5a5napt8o8,quick,moral,wolf,20,female,NA,"<p> The next day, B was leaving the local grocery store when they also spotted a lost wallet next to their car.</p><p> Upon picking up the wallet and looking inside, B found several hundred dollars in cash. </p>",0,NA,NA,NA,/Users/martincz/GitHub/COGS119/group_wi26_moral_character/analysis/../data/raw_data/p5a5napt8o8_1772140505300.csv,NA,NA,NA,NA,NA,NA,NA,NA,NA,NA,NA,NA,NA,NA,NA,NA,NA,NA,NA,NA,NA,NA,NA,NA,NA,NA,NA,NA,NA,NA,NA,NA,NA,NA,FALSE
3195,html-button-response,14,15,161984,p5a5napt8o8,quick,moral,wolf,20,female,NA,<p> B saw their decision as an easy one and was <i> able to decide quickly </i>. B left the wallet where they found it and drove off. </i></p>,0,byst_scenario_quick,NA,NA,/Users/martincz/GitHub/COGS119/group_wi26_moral_character/analysis/../data/raw_data/p5a5napt8o8_1772140505300.csv,NA,NA,NA,NA,NA,NA,NA,NA,NA,NA,NA,NA,NA,NA,NA,NA,NA,NA,NA,NA,NA,NA,NA,NA,NA,NA,NA,NA,NA,NA,NA,NA,NA,NA,FALSE
14339,survey-likert,15,16,176324,p5a5napt8o8,quick,moral,wolf,20,female,NA,NA,"{""b_principles_eval"":4}",NA,[0],byst_principles,/Users/martincz/GitHub/COGS119/group_wi26_moral_character/analysis/../data/raw_data/p5a5napt8o8_1772140505300.csv,NA,NA,NA,NA,NA,NA,NA,NA,NA,NA,NA,NA,NA,NA,NA,NA,NA,NA,NA,NA,4,NA,NA,NA,NA,NA,NA,NA,NA,NA,NA,NA,NA,NA,FALSE
6021,survey-likert,16,17,182346,p5a5napt8o8,quick,moral,wolf,20,female,NA,NA,"{""b_standards_eval"":3}",NA,[0],byst_standards,/Users/martincz/GitHub/COGS119/group_wi26_moral_character/analysis/../data/raw_data/p5a5napt8o8_1772140505300.csv,NA,NA,NA,NA,NA,NA,NA,NA,NA,NA,NA,NA,NA,NA,NA,NA,NA,NA,NA,NA,NA,3,NA,NA,NA,NA,NA,NA,NA,NA,NA,NA,NA,NA,FALSE
6262,survey-likert,17,18,188609,p5a5napt8o8,quick,moral,wolf,20,female,NA,NA,"{""b_deepness_eval"":1}",NA,[0],byst_depth,/Users/martincz/GitHub/COGS119/group_wi26_moral_character/analysis/../data/raw_data/p5a5napt8o8_1772140505300.csv,NA,NA,NA,NA,NA,NA,NA,NA,NA,NA,NA,NA,NA,NA,NA,NA,NA,NA,NA,NA,NA,NA,1,NA,NA,NA,NA,NA,NA,NA,NA,NA,NA,NA,FALSE
10782,survey-likert,18,19,199392,p5a5napt8o8,quick,moral,wolf,20,female,NA,NA,"{""B_cert_quite_certain"":6,""B_cert_reservations_RS"":0,""B_cert_far_from_alternative"":0,""B_cert_conflicted_RS"":0}",NA,"[2,1,3,0]",byst_certainty,/Users/martincz/GitHub/COGS119/group_wi26_moral_character/analysis/../data/raw_data/p5a5napt8o8_1772140505300.csv,NA,NA,NA,NA,NA,NA,NA,NA,NA,NA,NA,NA,NA,NA,NA,NA,NA,NA,NA,NA,NA,NA,NA,NA,NA,0,6,0,0,NA,NA,NA,NA,NA,FALSE
4125,survey-likert,19,20,203518,p5a5napt8o8,quick,moral,wolf,20,female,NA,NA,"{""b_imp_upset_acted_without_thinking"":0,""b_imp_calm_contained_RS"":6}",NA,"[1,0]",byst_emotional_impulsivity,/Users/martincz/GitHub/COGS119/group_wi26_moral_character/analysis/../data/raw_data/p5a5napt8o8_1772140505300.csv,NA,NA,NA,NA,NA,NA,NA,NA,NA,NA,NA,NA,NA,NA,NA,NA,NA,NA,NA,NA,NA,NA,NA,6,0,NA,NA,NA,NA,NA,NA,NA,NA,NA,FALSE
2771,survey-text,20,21,206290,p5a5napt8o8,quick,moral,wolf,20,female,NA,NA,"{""participant_age"":""20""}",NA,NA,NA,/Users/martincz/GitHub/COGS119/group_wi26_moral_character/analysis/../data/raw_data/p5a5napt8o8_1772140505300.csv,NA,NA,NA,NA,NA,NA,NA,NA,NA,NA,NA,NA,NA,NA,NA,NA,NA,NA,NA,NA,NA,NA,NA,NA,NA,NA,NA,NA,NA,NA,NA,NA,NA,NA,FALSE
4097,survey-text,21,22,210388,p5a5napt8o8,quick,moral,wolf,20,female,NA,NA,"{""gender"":""female""}",NA,NA,NA,/Users/martincz/GitHub/COGS119/group_wi26_moral_character/analysis/../data/raw_data/p5a5napt8o8_1772140505300.csv,NA,NA,NA,NA,NA,NA,NA,NA,NA,NA,NA,NA,NA,NA,NA,NA,NA,NA,NA,NA,NA,NA,NA,NA,NA,NA,NA,NA,NA,NA,NA,NA,NA,NA,FALSE
30803,survey-likert,22,23,241193,p5a5napt8o8,quick,moral,wolf,20,female,NA,NA,"{""ma_character_reflective"":5,""ma_some_actions_wrong"":2,""ma_think_through"":6,""ma_outcomes_matter"":6,""ma_gut_feelings"":1}",NA,"[4,3,1,2,0]",moral_attitudes,/Users/martincz/GitHub/COGS119/group_wi26_moral_character/analysis/../data/raw_data/p5a5napt8o8_1772140505300.csv,NA,NA,NA,NA,NA,NA,NA,NA,NA,NA,NA,NA,NA,NA,NA,NA,NA,NA,NA,NA,NA,NA,NA,NA,NA,NA,NA,NA,NA,1,5,6,2,6,FALSE
45911,survey-text,23,24,287047,p5a5napt8o8,quick,moral,wolf,20,female,NA,NA,"{""Q0"":""I think it's about morality and how we view different courses of actions as differing in morality even if the result was the same; no tech. difficulties""}",NA,NA,NA,/Users/martincz/GitHub/COGS119/group_wi26_moral_character/analysis/../data/raw_data/p5a5napt8o8_1772140505300.csv,NA,NA,NA,NA,NA,NA,NA,NA,NA,NA,NA,NA,NA,NA,NA,NA,NA,NA,NA,NA,NA,NA,NA,NA,NA,NA,NA,NA,NA,NA,NA,NA,NA,NA,FALSE
1823,fullscreen,0,1,2830,p5ocq7t0cya,quick,moral,rabbit,21,female,NA,NA,NA,NA,NA,NA,/Users/martincz/GitHub/COGS119/group_wi26_moral_character/analysis/../data/raw_data/p5ocq7t0cya_1772138430078.csv,NA,NA,NA,NA,NA,NA,NA,NA,NA,NA,NA,NA,NA,NA,NA,NA,NA,NA,NA,NA,NA,NA,NA,NA,NA,NA,NA,NA,NA,NA,NA,NA,NA,NA,FALSE
2775,html-keyboard-response,1,2,5607,p5ocq7t0cya,quick,moral,rabbit,21,female,NA,Welcome to the experiment. Press any key to begin.,NA,NA,NA,NA,/Users/martincz/GitHub/COGS119/group_wi26_moral_character/analysis/../data/raw_data/p5ocq7t0cya_1772138430078.csv,NA,NA,NA,NA,NA,NA,NA,NA,NA,NA,NA,NA,NA,NA,NA,NA,NA,NA,NA,NA,NA,NA,NA,NA,NA,NA,NA,NA,NA,NA,NA,NA,NA,NA,FALSE
5466,survey-text,2,3,11076,p5ocq7t0cya,quick,moral,rabbit,21,female,NA,NA,"{""participant_id"":""rabbit""}",NA,NA,NA,/Users/martincz/GitHub/COGS119/group_wi26_moral_character/analysis/../data/raw_data/p5ocq7t0cya_1772138430078.csv,NA,NA,NA,NA,NA,NA,NA,NA,NA,NA,NA,NA,NA,NA,NA,NA,NA,NA,NA,NA,NA,NA,NA,NA,NA,NA,NA,NA,NA,NA,NA,NA,NA,NA,FALSE
1567,html-keyboard-response,3,4,12644,p5ocq7t0cya,quick,moral,rabbit,21,female,NA,"
   <p>In this experiment, you will be presented with potential scenarios.</p><p>Please read through these carefully.</p>
   <p>You will answer a series of questions afterwards.</p>
   <p>Press any key to begin.</p>
",NA,NA,NA,NA,/Users/martincz/GitHub/COGS119/group_wi26_moral_character/analysis/../data/raw_data/p5ocq7t0cya_1772138430078.csv,NA,NA,NA,NA,NA,NA,NA,NA,NA,NA,NA,NA,NA,NA,NA,NA,NA,NA,NA,NA,NA,NA,NA,NA,NA,NA,NA,NA,NA,NA,NA,NA,NA,NA,FALSE
16963,html-button-response,4,5,29609,p5ocq7t0cya,quick,moral,rabbit,21,female,NA,"<p>Two people, J and N, were walking to separate cars in the parking lot of Andronico's, a local grocery store, where they each spotted a different lost wallet next to the cars.</p><p> Upon picking up the wallet and looking inside, each found several hundred dollars in cash. Each person considered whether they should return the wallet and money to the Customer Service desk at Andronico's, or pocket the money and drive away.</p>",0,NA,NA,NA,/Users/martincz/GitHub/COGS119/group_wi26_moral_character/analysis/../data/raw_data/p5ocq7t0cya_1772138430078.csv,NA,NA,NA,NA,NA,NA,NA,NA,NA,NA,NA,NA,NA,NA,NA,NA,NA,NA,NA,NA,NA,NA,NA,NA,NA,NA,NA,NA,NA,NA,NA,NA,NA,NA,FALSE
8949,html-button-response,5,6,38560,p5ocq7t0cya,quick,moral,rabbit,21,female,NA,"<p> N saw their decision as difficult and <i> was only able to decide after long and careful deliberation</i>. After several minutes of thinking in their car, <i> N decided not to steal the money </i> and instead left the wallet with customer service. </i><br> </p><p>In contrast, J saw their decision as an easy one and was <i> able to decide quickly. J too did not steal the money </i> and instead left the wallet with Customer Service.</p>",0,moral_stimulus_2,NA,NA,/Users/martincz/GitHub/COGS119/group_wi26_moral_character/analysis/../data/raw_data/p5ocq7t0cya_1772138430078.csv,NA,NA,NA,NA,NA,NA,NA,NA,NA,NA,NA,NA,NA,NA,NA,NA,NA,NA,NA,NA,NA,NA,NA,NA,NA,NA,NA,NA,NA,NA,NA,NA,NA,NA,FALSE
8248,survey-likert,6,7,46811,p5ocq7t0cya,quick,moral,rabbit,21,female,NA,NA,"{""j_manipulation_check"":4,""n_manipulation_check"":2}",NA,"[0,1]",NA,/Users/martincz/GitHub/COGS119/group_wi26_moral_character/analysis/../data/raw_data/p5ocq7t0cya_1772138430078.csv,4,2,NA,NA,NA,NA,NA,NA,NA,NA,NA,NA,NA,NA,NA,NA,NA,NA,NA,NA,NA,NA,NA,NA,NA,NA,NA,NA,NA,NA,NA,NA,NA,NA,FALSE
21114,survey-likert,7,8,67927,p5ocq7t0cya,quick,moral,rabbit,21,female,NA,NA,"{""n_principles_eval"":3,""j_principles_eval"":2}",NA,"[1,0]",principles,/Users/martincz/GitHub/COGS119/group_wi26_moral_character/analysis/../data/raw_data/p5ocq7t0cya_1772138430078.csv,NA,NA,3,2,NA,NA,NA,NA,NA,NA,NA,NA,NA,NA,NA,NA,NA,NA,NA,NA,NA,NA,NA,NA,NA,NA,NA,NA,NA,NA,NA,NA,NA,NA,FALSE
10315,survey-likert,8,9,78244,p5ocq7t0cya,quick,moral,rabbit,21,female,NA,NA,"{""n_standards_eval"":3,""j_standards_eval"":2}",NA,"[1,0]",standards,/Users/martincz/GitHub/COGS119/group_wi26_moral_character/analysis/../data/raw_data/p5ocq7t0cya_1772138430078.csv,NA,NA,NA,NA,3,2,NA,NA,NA,NA,NA,NA,NA,NA,NA,NA,NA,NA,NA,NA,NA,NA,NA,NA,NA,NA,NA,NA,NA,NA,NA,NA,NA,NA,FALSE
104135,survey-likert,9,10,182380,p5ocq7t0cya,quick,moral,rabbit,21,female,NA,NA,"{""j_deepness_eval"":1,""n_deepness_eval"":5}",NA,"[0,1]",depth,/Users/martincz/GitHub/COGS119/group_wi26_moral_character/analysis/../data/raw_data/p5ocq7t0cya_1772138430078.csv,NA,NA,NA,NA,NA,NA,5,1,NA,NA,NA,NA,NA,NA,NA,NA,NA,NA,NA,NA,NA,NA,NA,NA,NA,NA,NA,NA,NA,NA,NA,NA,NA,NA,FALSE
71197,survey-likert,10,11,253580,p5ocq7t0cya,quick,moral,rabbit,21,female,NA,NA,"{""j_cert_conflicted_RS"":2,""n_cert_conflicted_RS"":4,""j_cert_reservations_RS"":5,""n_cert_reservations_RS"":1}",NA,"[0,1,2,3]",certainty,/Users/martincz/GitHub/COGS119/group_wi26_moral_character/analysis/../data/raw_data/p5ocq7t0cya_1772138430078.csv,NA,NA,NA,NA,NA,NA,NA,NA,2,4,5,1,NA,NA,NA,NA,NA,NA,NA,NA,NA,NA,NA,NA,NA,NA,NA,NA,NA,NA,NA,NA,NA,NA,FALSE
102354,survey-likert,11,12,355936,p5ocq7t0cya,quick,moral,rabbit,21,female,NA,NA,"{""j_cert_quite_certain"":1,""n_cert_quite_certain"":4,""j_cert_far_from_alternative"":3,""n_cert_far_from_alternative"":3}",NA,"[0,1,2,3]",certainty,/Users/martincz/GitHub/COGS119/group_wi26_moral_character/analysis/../data/raw_data/p5ocq7t0cya_1772138430078.csv,NA,NA,NA,NA,NA,NA,NA,NA,NA,NA,NA,NA,1,4,3,3,NA,NA,NA,NA,NA,NA,NA,NA,NA,NA,NA,NA,NA,NA,NA,NA,NA,NA,FALSE
129696,survey-likert,12,13,485634,p5ocq7t0cya,quick,moral,rabbit,21,female,NA,NA,"{""j_imp_calm_contained_RS"":3,""n_imp_calm_contained_RS"":3,""j_imp_upset_acted_without_thinking"":4,""n_imp_upset_acted_without_thinking"":2}",NA,"[0,1,2,3]",emotional_impulsivity,/Users/martincz/GitHub/COGS119/group_wi26_moral_character/analysis/../data/raw_data/p5ocq7t0cya_1772138430078.csv,NA,NA,NA,NA,NA,NA,NA,NA,NA,NA,NA,NA,NA,NA,NA,NA,3,3,4,2,NA,NA,NA,NA,NA,NA,NA,NA,NA,NA,NA,NA,NA,NA,FALSE
7051,html-button-response,13,14,492687,p5ocq7t0cya,quick,moral,rabbit,21,female,NA,"<p> The next day, B was leaving the local grocery store when they also spotted a lost wallet next to their car.</p><p> Upon picking up the wallet and looking inside, B found several hundred dollars in cash. </p>",0,NA,NA,NA,/Users/martincz/GitHub/COGS119/group_wi26_moral_character/analysis/../data/raw_data/p5ocq7t0cya_1772138430078.csv,NA,NA,NA,NA,NA,NA,NA,NA,NA,NA,NA,NA,NA,NA,NA,NA,NA,NA,NA,NA,NA,NA,NA,NA,NA,NA,NA,NA,NA,NA,NA,NA,NA,NA,FALSE
5846,html-button-response,14,15,498534,p5ocq7t0cya,quick,moral,rabbit,21,female,NA,<p> B saw their decision as an easy one and was <i> able to decide quickly </i>. B left the wallet where they found it and drove off. </i></p>,0,byst_scenario_quick,NA,NA,/Users/martincz/GitHub/COGS119/group_wi26_moral_character/analysis/../data/raw_data/p5ocq7t0cya_1772138430078.csv,NA,NA,NA,NA,NA,NA,NA,NA,NA,NA,NA,NA,NA,NA,NA,NA,NA,NA,NA,NA,NA,NA,NA,NA,NA,NA,NA,NA,NA,NA,NA,NA,NA,NA,FALSE
11183,survey-likert,15,16,509718,p5ocq7t0cya,quick,moral,rabbit,21,female,NA,NA,"{""b_principles_eval"":4}",NA,[0],byst_principles,/Users/martincz/GitHub/COGS119/group_wi26_moral_character/analysis/../data/raw_data/p5ocq7t0cya_1772138430078.csv,NA,NA,NA,NA,NA,NA,NA,NA,NA,NA,NA,NA,NA,NA,NA,NA,NA,NA,NA,NA,4,NA,NA,NA,NA,NA,NA,NA,NA,NA,NA,NA,NA,NA,FALSE
14949,survey-likert,16,17,524668,p5ocq7t0cya,quick,moral,rabbit,21,female,NA,NA,"{""b_standards_eval"":5}",NA,[0],byst_standards,/Users/martincz/GitHub/COGS119/group_wi26_moral_character/analysis/../data/raw_data/p5ocq7t0cya_1772138430078.csv,NA,NA,NA,NA,NA,NA,NA,NA,NA,NA,NA,NA,NA,NA,NA,NA,NA,NA,NA,NA,NA,5,NA,NA,NA,NA,NA,NA,NA,NA,NA,NA,NA,NA,FALSE
9149,survey-likert,17,18,533818,p5ocq7t0cya,quick,moral,rabbit,21,female,NA,NA,"{""b_deepness_eval"":4}",NA,[0],byst_depth,/Users/martincz/GitHub/COGS119/group_wi26_moral_character/analysis/../data/raw_data/p5ocq7t0cya_1772138430078.csv,NA,NA,NA,NA,NA,NA,NA,NA,NA,NA,NA,NA,NA,NA,NA,NA,NA,NA,NA,NA,NA,NA,4,NA,NA,NA,NA,NA,NA,NA,NA,NA,NA,NA,FALSE
122618,survey-likert,18,19,656438,p5ocq7t0cya,quick,moral,rabbit,21,female,NA,NA,"{""B_cert_far_from_alternative"":3,""B_cert_quite_certain"":4,""B_cert_conflicted_RS"":4,""B_cert_reservations_RS"":2}",NA,"[3,2,0,1]",byst_certainty,/Users/martincz/GitHub/COGS119/group_wi26_moral_character/analysis/../data/raw_data/p5ocq7t0cya_1772138430078.csv,NA,NA,NA,NA,NA,NA,NA,NA,NA,NA,NA,NA,NA,NA,NA,NA,NA,NA,NA,NA,NA,NA,NA,NA,NA,4,4,3,2,NA,NA,NA,NA,NA,FALSE
7097,survey-likert,19,20,663538,p5ocq7t0cya,quick,moral,rabbit,21,female,NA,NA,"{""b_imp_calm_contained_RS"":4,""b_imp_upset_acted_without_thinking"":1}",NA,"[0,1]",byst_emotional_impulsivity,/Users/martincz/GitHub/COGS119/group_wi26_moral_character/analysis/../data/raw_data/p5ocq7t0cya_1772138430078.csv,NA,NA,NA,NA,NA,NA,NA,NA,NA,NA,NA,NA,NA,NA,NA,NA,NA,NA,NA,NA,NA,NA,NA,4,1,NA,NA,NA,NA,NA,NA,NA,NA,NA,FALSE
3715,survey-text,20,21,667255,p5ocq7t0cya,quick,moral,rabbit,21,female,NA,NA,"{""participant_age"":""21""}",NA,NA,NA,/Users/martincz/GitHub/COGS119/group_wi26_moral_character/analysis/../data/raw_data/p5ocq7t0cya_1772138430078.csv,NA,NA,NA,NA,NA,NA,NA,NA,NA,NA,NA,NA,NA,NA,NA,NA,NA,NA,NA,NA,NA,NA,NA,NA,NA,NA,NA,NA,NA,NA,NA,NA,NA,NA,FALSE
3414,survey-text,21,22,670670,p5ocq7t0cya,quick,moral,rabbit,21,female,NA,NA,"{""gender"":""female""}",NA,NA,NA,/Users/martincz/GitHub/COGS119/group_wi26_moral_character/analysis/../data/raw_data/p5ocq7t0cya_1772138430078.csv,NA,NA,NA,NA,NA,NA,NA,NA,NA,NA,NA,NA,NA,NA,NA,NA,NA,NA,NA,NA,NA,NA,NA,NA,NA,NA,NA,NA,NA,NA,NA,NA,NA,NA,FALSE
35349,survey-likert,22,23,706022,p5ocq7t0cya,quick,moral,rabbit,21,female,NA,NA,"{""ma_some_actions_wrong"":4,""ma_character_reflective"":2,""ma_outcomes_matter"":1,""ma_think_through"":4,""ma_gut_feelings"":4}",NA,"[3,4,2,1,0]",moral_attitudes,/Users/martincz/GitHub/COGS119/group_wi26_moral_character/analysis/../data/raw_data/p5ocq7t0cya_1772138430078.csv,NA,NA,NA,NA,NA,NA,NA,NA,NA,NA,NA,NA,NA,NA,NA,NA,NA,NA,NA,NA,NA,NA,NA,NA,NA,NA,NA,NA,NA,4,2,1,4,4,FALSE
27398,survey-text,23,24,733422,p5ocq7t0cya,quick,moral,rabbit,21,female,NA,NA,"{""Q0"":""morality and choices people make ""}",NA,NA,NA,/Users/martincz/GitHub/COGS119/group_wi26_moral_character/analysis/../data/raw_data/p5ocq7t0cya_1772138430078.csv,NA,NA,NA,NA,NA,NA,NA,NA,NA,NA,NA,NA,NA,NA,NA,NA,NA,NA,NA,NA,NA,NA,NA,NA,NA,NA,NA,NA,NA,NA,NA,NA,NA,NA,FALSE
4353,fullscreen,0,1,5360,p5yvkjgf6lq,quick,moral,moose,21,female,NA,NA,NA,NA,NA,NA,/Users/martincz/GitHub/COGS119/group_wi26_moral_character/analysis/../data/raw_data/p5yvkjgf6lq_1772141991968.csv,NA,NA,NA,NA,NA,NA,NA,NA,NA,NA,NA,NA,NA,NA,NA,NA,NA,NA,NA,NA,NA,NA,NA,NA,NA,NA,NA,NA,NA,NA,NA,NA,NA,NA,TRUE
1606,html-keyboard-response,1,2,6967,p5yvkjgf6lq,quick,moral,moose,21,female,NA,Welcome to the experiment. Press any key to begin.,NA,NA,NA,NA,/Users/martincz/GitHub/COGS119/group_wi26_moral_character/analysis/../data/raw_data/p5yvkjgf6lq_1772141991968.csv,NA,NA,NA,NA,NA,NA,NA,NA,NA,NA,NA,NA,NA,NA,NA,NA,NA,NA,NA,NA,NA,NA,NA,NA,NA,NA,NA,NA,NA,NA,NA,NA,NA,NA,TRUE
12438,survey-text,2,3,19409,p5yvkjgf6lq,quick,moral,moose,21,female,NA,NA,"{""participant_id"":""A18534325""}",NA,NA,NA,/Users/martincz/GitHub/COGS119/group_wi26_moral_character/analysis/../data/raw_data/p5yvkjgf6lq_1772141991968.csv,NA,NA,NA,NA,NA,NA,NA,NA,NA,NA,NA,NA,NA,NA,NA,NA,NA,NA,NA,NA,NA,NA,NA,NA,NA,NA,NA,NA,NA,NA,NA,NA,NA,NA,TRUE
3992,html-keyboard-response,3,4,23402,p5yvkjgf6lq,quick,moral,moose,21,female,NA,"
   <p>In this experiment, you will be presented with potential scenarios.</p><p>Please read through these carefully.</p>
   <p>You will answer a series of questions afterwards.</p>
   <p>Press any key to begin.</p>
",NA,NA,NA,NA,/Users/martincz/GitHub/COGS119/group_wi26_moral_character/analysis/../data/raw_data/p5yvkjgf6lq_1772141991968.csv,NA,NA,NA,NA,NA,NA,NA,NA,NA,NA,NA,NA,NA,NA,NA,NA,NA,NA,NA,NA,NA,NA,NA,NA,NA,NA,NA,NA,NA,NA,NA,NA,NA,NA,TRUE
14905,html-button-response,4,5,38309,p5yvkjgf6lq,quick,moral,moose,21,female,NA,"<p>Two people, J and N, were walking to separate cars in the parking lot of Andronico's, a local grocery store, where they each spotted a different lost wallet next to the cars.</p><p> Upon picking up the wallet and looking inside, each found several hundred dollars in cash. Each person considered whether they should return the wallet and money to the Customer Service desk at Andronico's, or pocket the money and drive away.</p>",0,NA,NA,NA,/Users/martincz/GitHub/COGS119/group_wi26_moral_character/analysis/../data/raw_data/p5yvkjgf6lq_1772141991968.csv,NA,NA,NA,NA,NA,NA,NA,NA,NA,NA,NA,NA,NA,NA,NA,NA,NA,NA,NA,NA,NA,NA,NA,NA,NA,NA,NA,NA,NA,NA,NA,NA,NA,NA,TRUE
24707,html-button-response,5,6,63018,p5yvkjgf6lq,quick,moral,moose,21,female,NA,"<p> J saw their decision as an easy one and was <i> able to decide quickly. J did not steal the money </i> and instead left the wallet with Customer Service.</p><p> In contrast, N saw their decision as difficult and <i> was only able to decide after long and careful deliberation</i>. After several minutes of thinking in their car, <i> N too decided not to steal the money </i> and instead left the wallet with customer service. </i><br> </p>",0,moral_stimulus_1,NA,NA,/Users/martincz/GitHub/COGS119/group_wi26_moral_character/analysis/../data/raw_data/p5yvkjgf6lq_1772141991968.csv,NA,NA,NA,NA,NA,NA,NA,NA,NA,NA,NA,NA,NA,NA,NA,NA,NA,NA,NA,NA,NA,NA,NA,NA,NA,NA,NA,NA,NA,NA,NA,NA,NA,NA,TRUE
8546,survey-likert,6,7,71566,p5yvkjgf6lq,quick,moral,moose,21,female,NA,NA,"{""j_manipulation_check"":6,""n_manipulation_check"":0}",NA,"[0,1]",NA,/Users/martincz/GitHub/COGS119/group_wi26_moral_character/analysis/../data/raw_data/p5yvkjgf6lq_1772141991968.csv,6,0,NA,NA,NA,NA,NA,NA,NA,NA,NA,NA,NA,NA,NA,NA,NA,NA,NA,NA,NA,NA,NA,NA,NA,NA,NA,NA,NA,NA,NA,NA,NA,NA,TRUE
70189,survey-likert,7,8,141757,p5yvkjgf6lq,quick,moral,moose,21,female,NA,NA,"{""j_standards_eval"":5,""n_standards_eval"":3}",NA,"[0,1]",standards,/Users/martincz/GitHub/COGS119/group_wi26_moral_character/analysis/../data/raw_data/p5yvkjgf6lq_1772141991968.csv,NA,NA,NA,NA,3,5,NA,NA,NA,NA,NA,NA,NA,NA,NA,NA,NA,NA,NA,NA,NA,NA,NA,NA,NA,NA,NA,NA,NA,NA,NA,NA,NA,NA,TRUE
10979,survey-likert,8,9,152739,p5yvkjgf6lq,quick,moral,moose,21,female,NA,NA,"{""j_principles_eval"":5,""n_principles_eval"":2}",NA,"[0,1]",principles,/Users/martincz/GitHub/COGS119/group_wi26_moral_character/analysis/../data/raw_data/p5yvkjgf6lq_1772141991968.csv,NA,NA,2,5,NA,NA,NA,NA,NA,NA,NA,NA,NA,NA,NA,NA,NA,NA,NA,NA,NA,NA,NA,NA,NA,NA,NA,NA,NA,NA,NA,NA,NA,NA,TRUE
42107,survey-likert,9,10,194848,p5yvkjgf6lq,quick,moral,moose,21,female,NA,NA,"{""n_deepness_eval"":5,""j_deepness_eval"":0}",NA,"[1,0]",depth,/Users/martincz/GitHub/COGS119/group_wi26_moral_character/analysis/../data/raw_data/p5yvkjgf6lq_1772141991968.csv,NA,NA,NA,NA,NA,NA,5,0,NA,NA,NA,NA,NA,NA,NA,NA,NA,NA,NA,NA,NA,NA,NA,NA,NA,NA,NA,NA,NA,NA,NA,NA,NA,NA,TRUE
72335,survey-likert,10,11,267185,p5yvkjgf6lq,quick,moral,moose,21,female,NA,NA,"{""j_cert_conflicted_RS"":1,""n_cert_conflicted_RS"":6,""j_cert_reservations_RS"":4,""n_cert_reservations_RS"":4}",NA,"[0,1,2,3]",certainty,/Users/martincz/GitHub/COGS119/group_wi26_moral_character/analysis/../data/raw_data/p5yvkjgf6lq_1772141991968.csv,NA,NA,NA,NA,NA,NA,NA,NA,1,6,4,4,NA,NA,NA,NA,NA,NA,NA,NA,NA,NA,NA,NA,NA,NA,NA,NA,NA,NA,NA,NA,NA,NA,TRUE
55813,survey-likert,11,12,323001,p5yvkjgf6lq,quick,moral,moose,21,female,NA,NA,"{""j_cert_quite_certain"":5,""n_cert_quite_certain"":6,""j_cert_far_from_alternative"":1,""n_cert_far_from_alternative"":4}",NA,"[0,1,2,3]",certainty,/Users/martincz/GitHub/COGS119/group_wi26_moral_character/analysis/../data/raw_data/p5yvkjgf6lq_1772141991968.csv,NA,NA,NA,NA,NA,NA,NA,NA,NA,NA,NA,NA,5,6,1,4,NA,NA,NA,NA,NA,NA,NA,NA,NA,NA,NA,NA,NA,NA,NA,NA,NA,NA,TRUE
20306,survey-likert,12,13,343309,p5yvkjgf6lq,quick,moral,moose,21,female,NA,NA,"{""j_imp_calm_contained_RS"":6,""n_imp_calm_contained_RS"":6,""j_imp_upset_acted_without_thinking"":0,""n_imp_upset_acted_without_thinking"":0}",NA,"[0,1,2,3]",emotional_impulsivity,/Users/martincz/GitHub/COGS119/group_wi26_moral_character/analysis/../data/raw_data/p5yvkjgf6lq_1772141991968.csv,NA,NA,NA,NA,NA,NA,NA,NA,NA,NA,NA,NA,NA,NA,NA,NA,6,6,0,0,NA,NA,NA,NA,NA,NA,NA,NA,NA,NA,NA,NA,NA,NA,TRUE
16303,html-button-response,13,14,359613,p5yvkjgf6lq,quick,moral,moose,21,female,NA,"<p> The next day, B was leaving the local grocery store when they also spotted a lost wallet next to their car.</p><p> Upon picking up the wallet and looking inside, B found several hundred dollars in cash. </p>",0,NA,NA,NA,/Users/martincz/GitHub/COGS119/group_wi26_moral_character/analysis/../data/raw_data/p5yvkjgf6lq_1772141991968.csv,NA,NA,NA,NA,NA,NA,NA,NA,NA,NA,NA,NA,NA,NA,NA,NA,NA,NA,NA,NA,NA,NA,NA,NA,NA,NA,NA,NA,NA,NA,NA,NA,NA,NA,TRUE
4299,html-button-response,14,15,363913,p5yvkjgf6lq,quick,moral,moose,21,female,NA,<p> B saw their decision as an easy one and was <i> able to decide quickly </i>. B left the wallet where they found it and drove off. </i></p>,0,byst_scenario_quick,NA,NA,/Users/martincz/GitHub/COGS119/group_wi26_moral_character/analysis/../data/raw_data/p5yvkjgf6lq_1772141991968.csv,NA,NA,NA,NA,NA,NA,NA,NA,NA,NA,NA,NA,NA,NA,NA,NA,NA,NA,NA,NA,NA,NA,NA,NA,NA,NA,NA,NA,NA,NA,NA,NA,NA,NA,TRUE
32677,survey-likert,15,16,396591,p5yvkjgf6lq,quick,moral,moose,21,female,NA,NA,"{""b_standards_eval"":4}",NA,[0],byst_standards,/Users/martincz/GitHub/COGS119/group_wi26_moral_character/analysis/../data/raw_data/p5yvkjgf6lq_1772141991968.csv,NA,NA,NA,NA,NA,NA,NA,NA,NA,NA,NA,NA,NA,NA,NA,NA,NA,NA,NA,NA,NA,4,NA,NA,NA,NA,NA,NA,NA,NA,NA,NA,NA,NA,TRUE
11557,survey-likert,16,17,408150,p5yvkjgf6lq,quick,moral,moose,21,female,NA,NA,"{""b_principles_eval"":3}",NA,[0],byst_principles,/Users/martincz/GitHub/COGS119/group_wi26_moral_character/analysis/../data/raw_data/p5yvkjgf6lq_1772141991968.csv,NA,NA,NA,NA,NA,NA,NA,NA,NA,NA,NA,NA,NA,NA,NA,NA,NA,NA,NA,NA,3,NA,NA,NA,NA,NA,NA,NA,NA,NA,NA,NA,NA,NA,TRUE
31011,survey-likert,17,18,439163,p5yvkjgf6lq,quick,moral,moose,21,female,NA,NA,"{""b_deepness_eval"":5}",NA,[0],byst_depth,/Users/martincz/GitHub/COGS119/group_wi26_moral_character/analysis/../data/raw_data/p5yvkjgf6lq_1772141991968.csv,NA,NA,NA,NA,NA,NA,NA,NA,NA,NA,NA,NA,NA,NA,NA,NA,NA,NA,NA,NA,NA,NA,5,NA,NA,NA,NA,NA,NA,NA,NA,NA,NA,NA,TRUE
12006,survey-likert,18,19,451171,p5yvkjgf6lq,quick,moral,moose,21,female,NA,NA,"{""b_imp_calm_contained_RS"":3,""b_imp_upset_acted_without_thinking"":1}",NA,"[0,1]",byst_emotional_impulsivity,/Users/martincz/GitHub/COGS119/group_wi26_moral_character/analysis/../data/raw_data/p5yvkjgf6lq_1772141991968.csv,NA,NA,NA,NA,NA,NA,NA,NA,NA,NA,NA,NA,NA,NA,NA,NA,NA,NA,NA,NA,NA,NA,NA,3,1,NA,NA,NA,NA,NA,NA,NA,NA,NA,TRUE
83669,survey-likert,19,20,534842,p5yvkjgf6lq,quick,moral,moose,21,female,NA,NA,"{""B_cert_conflicted_RS"":1,""B_cert_reservations_RS"":1,""B_cert_quite_certain"":4,""B_cert_far_from_alternative"":1}",NA,"[0,1,2,3]",byst_certainty,/Users/martincz/GitHub/COGS119/group_wi26_moral_character/analysis/../data/raw_data/p5yvkjgf6lq_1772141991968.csv,NA,NA,NA,NA,NA,NA,NA,NA,NA,NA,NA,NA,NA,NA,NA,NA,NA,NA,NA,NA,NA,NA,NA,NA,NA,1,4,1,1,NA,NA,NA,NA,NA,TRUE
3287,survey-text,20,21,538133,p5yvkjgf6lq,quick,moral,moose,21,female,NA,NA,"{""participant_age"":""21""}",NA,NA,NA,/Users/martincz/GitHub/COGS119/group_wi26_moral_character/analysis/../data/raw_data/p5yvkjgf6lq_1772141991968.csv,NA,NA,NA,NA,NA,NA,NA,NA,NA,NA,NA,NA,NA,NA,NA,NA,NA,NA,NA,NA,NA,NA,NA,NA,NA,NA,NA,NA,NA,NA,NA,NA,NA,NA,TRUE
6294,survey-text,21,22,544433,p5yvkjgf6lq,quick,moral,moose,21,female,NA,NA,"{""gender"":""female""}",NA,NA,NA,/Users/martincz/GitHub/COGS119/group_wi26_moral_character/analysis/../data/raw_data/p5yvkjgf6lq_1772141991968.csv,NA,NA,NA,NA,NA,NA,NA,NA,NA,NA,NA,NA,NA,NA,NA,NA,NA,NA,NA,NA,NA,NA,NA,NA,NA,NA,NA,NA,NA,NA,NA,NA,NA,NA,TRUE
22126,survey-likert,22,23,566562,p5yvkjgf6lq,quick,moral,moose,21,female,NA,NA,"{""ma_think_through"":6,""ma_some_actions_wrong"":4,""ma_gut_feelings"":5,""ma_character_reflective"":4,""ma_outcomes_matter"":5}",NA,"[1,3,0,4,2]",moral_attitudes,/Users/martincz/GitHub/COGS119/group_wi26_moral_character/analysis/../data/raw_data/p5yvkjgf6lq_1772141991968.csv,NA,NA,NA,NA,NA,NA,NA,NA,NA,NA,NA,NA,NA,NA,NA,NA,NA,NA,NA,NA,NA,NA,NA,NA,NA,NA,NA,NA,NA,5,4,5,4,6,TRUE
29467,survey-text,23,24,596032,p5yvkjgf6lq,quick,moral,moose,21,female,NA,NA,"{""Q0"":""Moral judgment on character depending on decision time""}",NA,NA,NA,/Users/martincz/GitHub/COGS119/group_wi26_moral_character/analysis/../data/raw_data/p5yvkjgf6lq_1772141991968.csv,NA,NA,NA,NA,NA,NA,NA,NA,NA,NA,NA,NA,NA,NA,NA,NA,NA,NA,NA,NA,NA,NA,NA,NA,NA,NA,NA,NA,NA,NA,NA,NA,NA,NA,TRUE
2980,fullscreen,0,1,3986,p6sw3wsogg9,quick,moral,swan,22,female,NA,NA,NA,NA,NA,NA,/Users/martincz/GitHub/COGS119/group_wi26_moral_character/analysis/../data/raw_data/p6sw3wsogg9_1772390285673.csv,NA,NA,NA,NA,NA,NA,NA,NA,NA,NA,NA,NA,NA,NA,NA,NA,NA,NA,NA,NA,NA,NA,NA,NA,NA,NA,NA,NA,NA,NA,NA,NA,NA,NA,FALSE
1151,html-keyboard-response,1,2,5139,p6sw3wsogg9,quick,moral,swan,22,female,NA,Welcome to the experiment. Press any key to begin.,NA,NA,NA,NA,/Users/martincz/GitHub/COGS119/group_wi26_moral_character/analysis/../data/raw_data/p6sw3wsogg9_1772390285673.csv,NA,NA,NA,NA,NA,NA,NA,NA,NA,NA,NA,NA,NA,NA,NA,NA,NA,NA,NA,NA,NA,NA,NA,NA,NA,NA,NA,NA,NA,NA,NA,NA,NA,NA,FALSE
2161,survey-text,2,3,7305,p6sw3wsogg9,quick,moral,swan,22,female,NA,NA,"{""participant_id"":""swan""}",NA,NA,NA,/Users/martincz/GitHub/COGS119/group_wi26_moral_character/analysis/../data/raw_data/p6sw3wsogg9_1772390285673.csv,NA,NA,NA,NA,NA,NA,NA,NA,NA,NA,NA,NA,NA,NA,NA,NA,NA,NA,NA,NA,NA,NA,NA,NA,NA,NA,NA,NA,NA,NA,NA,NA,NA,NA,FALSE
3417,html-keyboard-response,3,4,10722,p6sw3wsogg9,quick,moral,swan,22,female,NA,"
   <p>In this experiment, you will be presented with potential scenarios.</p><p>Please read through these carefully.</p>
   <p>You will answer a series of questions afterwards.</p>
   <p>Press any key to begin.</p>
",NA,NA,NA,NA,/Users/martincz/GitHub/COGS119/group_wi26_moral_character/analysis/../data/raw_data/p6sw3wsogg9_1772390285673.csv,NA,NA,NA,NA,NA,NA,NA,NA,NA,NA,NA,NA,NA,NA,NA,NA,NA,NA,NA,NA,NA,NA,NA,NA,NA,NA,NA,NA,NA,NA,NA,NA,NA,NA,FALSE
17475,html-button-response,4,5,28199,p6sw3wsogg9,quick,moral,swan,22,female,NA,"<p>Two people, J and N, were walking to separate cars in the parking lot of Andronico's, a local grocery store, where they each spotted a different lost wallet next to the cars.</p><p> Upon picking up the wallet and looking inside, each found several hundred dollars in cash. Each person considered whether they should return the wallet and money to the Customer Service desk at Andronico's, or pocket the money and drive away.</p>",0,NA,NA,NA,/Users/martincz/GitHub/COGS119/group_wi26_moral_character/analysis/../data/raw_data/p6sw3wsogg9_1772390285673.csv,NA,NA,NA,NA,NA,NA,NA,NA,NA,NA,NA,NA,NA,NA,NA,NA,NA,NA,NA,NA,NA,NA,NA,NA,NA,NA,NA,NA,NA,NA,NA,NA,NA,NA,FALSE
8279,html-button-response,5,6,36479,p6sw3wsogg9,quick,moral,swan,22,female,NA,"<p> N saw their decision as difficult and <i> was only able to decide after long and careful deliberation</i>. After several minutes of thinking in their car, <i> N decided not to steal the money </i> and instead left the wallet with customer service. </i><br> </p><p>In contrast, J saw their decision as an easy one and was <i> able to decide quickly. J too did not steal the money </i> and instead left the wallet with Customer Service.</p>",0,moral_stimulus_2,NA,NA,/Users/martincz/GitHub/COGS119/group_wi26_moral_character/analysis/../data/raw_data/p6sw3wsogg9_1772390285673.csv,NA,NA,NA,NA,NA,NA,NA,NA,NA,NA,NA,NA,NA,NA,NA,NA,NA,NA,NA,NA,NA,NA,NA,NA,NA,NA,NA,NA,NA,NA,NA,NA,NA,NA,FALSE
5926,survey-likert,6,7,42408,p6sw3wsogg9,quick,moral,swan,22,female,NA,NA,"{""n_manipulation_check"":0,""j_manipulation_check"":6}",NA,"[1,0]",NA,/Users/martincz/GitHub/COGS119/group_wi26_moral_character/analysis/../data/raw_data/p6sw3wsogg9_1772390285673.csv,6,0,NA,NA,NA,NA,NA,NA,NA,NA,NA,NA,NA,NA,NA,NA,NA,NA,NA,NA,NA,NA,NA,NA,NA,NA,NA,NA,NA,NA,NA,NA,NA,NA,FALSE
7595,survey-likert,7,8,50004,p6sw3wsogg9,quick,moral,swan,22,female,NA,NA,"{""j_principles_eval"":4,""n_principles_eval"":6}",NA,"[0,1]",principles,/Users/martincz/GitHub/COGS119/group_wi26_moral_character/analysis/../data/raw_data/p6sw3wsogg9_1772390285673.csv,NA,NA,6,4,NA,NA,NA,NA,NA,NA,NA,NA,NA,NA,NA,NA,NA,NA,NA,NA,NA,NA,NA,NA,NA,NA,NA,NA,NA,NA,NA,NA,NA,NA,FALSE
6486,survey-likert,8,9,56493,p6sw3wsogg9,quick,moral,swan,22,female,NA,NA,"{""j_standards_eval"":4,""n_standards_eval"":6}",NA,"[0,1]",standards,/Users/martincz/GitHub/COGS119/group_wi26_moral_character/analysis/../data/raw_data/p6sw3wsogg9_1772390285673.csv,NA,NA,NA,NA,6,4,NA,NA,NA,NA,NA,NA,NA,NA,NA,NA,NA,NA,NA,NA,NA,NA,NA,NA,NA,NA,NA,NA,NA,NA,NA,NA,NA,NA,FALSE
14142,survey-likert,9,10,70638,p6sw3wsogg9,quick,moral,swan,22,female,NA,NA,"{""n_deepness_eval"":1,""j_deepness_eval"":6}",NA,"[1,0]",depth,/Users/martincz/GitHub/COGS119/group_wi26_moral_character/analysis/../data/raw_data/p6sw3wsogg9_1772390285673.csv,NA,NA,NA,NA,NA,NA,1,6,NA,NA,NA,NA,NA,NA,NA,NA,NA,NA,NA,NA,NA,NA,NA,NA,NA,NA,NA,NA,NA,NA,NA,NA,NA,NA,FALSE
11506,survey-likert,10,11,82147,p6sw3wsogg9,quick,moral,swan,22,female,NA,NA,"{""j_cert_conflicted_RS"":0,""n_cert_conflicted_RS"":5,""j_cert_reservations_RS"":0,""n_cert_reservations_RS"":4}",NA,"[0,1,2,3]",certainty,/Users/martincz/GitHub/COGS119/group_wi26_moral_character/analysis/../data/raw_data/p6sw3wsogg9_1772390285673.csv,NA,NA,NA,NA,NA,NA,NA,NA,0,5,0,4,NA,NA,NA,NA,NA,NA,NA,NA,NA,NA,NA,NA,NA,NA,NA,NA,NA,NA,NA,NA,NA,NA,FALSE
21013,survey-likert,11,12,103163,p6sw3wsogg9,quick,moral,swan,22,female,NA,NA,"{""j_cert_quite_certain"":6,""n_cert_quite_certain"":2,""j_cert_far_from_alternative"":6,""n_cert_far_from_alternative"":4}",NA,"[0,1,2,3]",certainty,/Users/martincz/GitHub/COGS119/group_wi26_moral_character/analysis/../data/raw_data/p6sw3wsogg9_1772390285673.csv,NA,NA,NA,NA,NA,NA,NA,NA,NA,NA,NA,NA,6,2,6,4,NA,NA,NA,NA,NA,NA,NA,NA,NA,NA,NA,NA,NA,NA,NA,NA,NA,NA,FALSE
10026,survey-likert,12,13,113191,p6sw3wsogg9,quick,moral,swan,22,female,NA,NA,"{""j_imp_calm_contained_RS"":6,""n_imp_calm_contained_RS"":6,""j_imp_upset_acted_without_thinking"":0,""n_imp_upset_acted_without_thinking"":0}",NA,"[0,1,2,3]",emotional_impulsivity,/Users/martincz/GitHub/COGS119/group_wi26_moral_character/analysis/../data/raw_data/p6sw3wsogg9_1772390285673.csv,NA,NA,NA,NA,NA,NA,NA,NA,NA,NA,NA,NA,NA,NA,NA,NA,6,6,0,0,NA,NA,NA,NA,NA,NA,NA,NA,NA,NA,NA,NA,NA,NA,FALSE
