success,rt,trial_type,trial_index,plugin_version,time_elapsed,random_id,bystander_condition,condition,participant,age,gender,inquiry,stimulus,response,item_type,question_order,block_type,file_name
TRUE,1405,fullscreen,0,null,2421,p06tycu8a34,slow,moral,whale,21,male,NA,NA,NA,NA,NA,NA,/Users/martincz/GitHub/COGS119/group_wi26_moral_character/analysis/../data/raw_data/p06tycu8a34_1772524616873.csv
NA,1291,html-keyboard-response,1,2.0.0,3713,p06tycu8a34,slow,moral,whale,21,male,NA,Welcome to the experiment. Press any key to begin.,NA,NA,NA,NA,/Users/martincz/GitHub/COGS119/group_wi26_moral_character/analysis/../data/raw_data/p06tycu8a34_1772524616873.csv
NA,1851,survey-text,2,2.0.0,5575,p06tycu8a34,slow,moral,whale,21,male,NA,NA,"{""participant_id"":""whale""}",NA,NA,NA,/Users/martincz/GitHub/COGS119/group_wi26_moral_character/analysis/../data/raw_data/p06tycu8a34_1772524616873.csv
NA,975,html-keyboard-response,3,2.0.0,6550,p06tycu8a34,slow,moral,whale,21,male,NA,"
   <p>In this experiment, you will be presented with potential scenarios.</p><p>Please read through these carefully.</p>
   <p>You will answer a series of questions afterwards.</p>
   <p>Press any key to begin.</p>
",NA,NA,NA,NA,/Users/martincz/GitHub/COGS119/group_wi26_moral_character/analysis/../data/raw_data/p06tycu8a34_1772524616873.csv
NA,3020,html-button-response,4,2.0.0,9572,p06tycu8a34,slow,moral,whale,21,male,NA,"<p>Two people, J and N, were walking to separate cars in the parking lot of Andronico's, a local grocery store, where they each spotted a different lost wallet next to the cars.</p><p> Upon picking up the wallet and looking inside, each found several hundred dollars in cash. Each person considered whether they should return the wallet and money to the Customer Service desk at Andronico's, or pocket the money and drive away.</p>",0,NA,NA,NA,/Users/martincz/GitHub/COGS119/group_wi26_moral_character/analysis/../data/raw_data/p06tycu8a34_1772524616873.csv
NA,765,html-button-response,5,2.0.0,10338,p06tycu8a34,slow,moral,whale,21,male,NA,"<p> J saw their decision as an easy one and was <i> able to decide quickly. J did not steal the money </i> and instead left the wallet with Customer Service.</p><p> In contrast, N saw their decision as difficult and <i> was only able to decide after long and careful deliberation</i>. After several minutes of thinking in their car, <i> N too decided not to steal the money </i> and instead left the wallet with customer service. </i><br> </p>",0,moral_stimulus_1,NA,NA,/Users/martincz/GitHub/COGS119/group_wi26_moral_character/analysis/../data/raw_data/p06tycu8a34_1772524616873.csv
NA,4684,survey-likert,6,2.0.0,15024,p06tycu8a34,slow,moral,whale,21,male,NA,NA,"{""j_manipulation_check"":4,""n_manipulation_check"":2}",NA,"[0,1]",NA,/Users/martincz/GitHub/COGS119/group_wi26_moral_character/analysis/../data/raw_data/p06tycu8a34_1772524616873.csv
NA,9190,survey-likert,7,2.0.0,24216,p06tycu8a34,slow,moral,whale,21,male,NA,NA,"{""n_principles_eval"":5,""j_principles_eval"":4}",NA,"[1,0]",principles,/Users/martincz/GitHub/COGS119/group_wi26_moral_character/analysis/../data/raw_data/p06tycu8a34_1772524616873.csv
NA,4190,survey-likert,8,2.0.0,28407,p06tycu8a34,slow,moral,whale,21,male,NA,NA,"{""n_standards_eval"":1,""j_standards_eval"":2}",NA,"[1,0]",standards,/Users/martincz/GitHub/COGS119/group_wi26_moral_character/analysis/../data/raw_data/p06tycu8a34_1772524616873.csv
NA,4325,survey-likert,9,2.0.0,32733,p06tycu8a34,slow,moral,whale,21,male,NA,NA,"{""n_deepness_eval"":5,""j_deepness_eval"":4}",NA,"[1,0]",depth,/Users/martincz/GitHub/COGS119/group_wi26_moral_character/analysis/../data/raw_data/p06tycu8a34_1772524616873.csv
NA,13973,survey-likert,10,2.0.0,46707,p06tycu8a34,slow,moral,whale,21,male,NA,NA,"{""j_cert_conflicted_RS"":1,""n_cert_conflicted_RS"":5,""j_cert_reservations_RS"":1,""n_cert_reservations_RS"":5}",NA,"[0,1,2,3]",certainty,/Users/martincz/GitHub/COGS119/group_wi26_moral_character/analysis/../data/raw_data/p06tycu8a34_1772524616873.csv
NA,13149,survey-likert,11,2.0.0,59857,p06tycu8a34,slow,moral,whale,21,male,NA,NA,"{""j_cert_quite_certain"":5,""n_cert_quite_certain"":1,""j_cert_far_from_alternative"":5,""n_cert_far_from_alternative"":1}",NA,"[0,1,2,3]",certainty,/Users/martincz/GitHub/COGS119/group_wi26_moral_character/analysis/../data/raw_data/p06tycu8a34_1772524616873.csv
NA,10398,survey-likert,12,2.0.0,70257,p06tycu8a34,slow,moral,whale,21,male,NA,NA,"{""j_imp_calm_contained_RS"":4,""n_imp_calm_contained_RS"":3,""j_imp_upset_acted_without_thinking"":2,""n_imp_upset_acted_without_thinking"":3}",NA,"[0,1,2,3]",emotional_impulsivity,/Users/martincz/GitHub/COGS119/group_wi26_moral_character/analysis/../data/raw_data/p06tycu8a34_1772524616873.csv
NA,1233,html-button-response,13,2.0.0,71491,p06tycu8a34,slow,moral,whale,21,male,NA,"<p> The next day, B was leaving the local grocery store when they also spotted a lost wallet next to their car.</p><p> Upon picking up the wallet and looking inside, B found several hundred dollars in cash. </p>",0,NA,NA,NA,/Users/martincz/GitHub/COGS119/group_wi26_moral_character/analysis/../data/raw_data/p06tycu8a34_1772524616873.csv
NA,638,html-button-response,14,2.0.0,72131,p06tycu8a34,slow,moral,whale,21,male,NA,"<p> B saw their decision as difficult and <i> was only able to decide after long and careful deliberation</i>. After several minutes of thinking, B decided to leave the wallet where they found it and drove off. </p>",0,byst_scenario_slow,NA,NA,/Users/martincz/GitHub/COGS119/group_wi26_moral_character/analysis/../data/raw_data/p06tycu8a34_1772524616873.csv
NA,3191,survey-likert,15,2.0.0,75323,p06tycu8a34,slow,moral,whale,21,male,NA,NA,"{""b_principles_eval"":4}",NA,[0],byst_principles,/Users/martincz/GitHub/COGS119/group_wi26_moral_character/analysis/../data/raw_data/p06tycu8a34_1772524616873.csv
NA,1806,survey-likert,16,2.0.0,77130,p06tycu8a34,slow,moral,whale,21,male,NA,NA,"{""b_standards_eval"":2}",NA,[0],byst_standards,/Users/martincz/GitHub/COGS119/group_wi26_moral_character/analysis/../data/raw_data/p06tycu8a34_1772524616873.csv
NA,1672,survey-likert,17,2.0.0,78804,p06tycu8a34,slow,moral,whale,21,male,NA,NA,"{""b_deepness_eval"":3}",NA,[0],byst_depth,/Users/martincz/GitHub/COGS119/group_wi26_moral_character/analysis/../data/raw_data/p06tycu8a34_1772524616873.csv
NA,4968,survey-likert,18,2.0.0,83775,p06tycu8a34,slow,moral,whale,21,male,NA,NA,"{""b_imp_calm_contained_RS"":1,""b_imp_upset_acted_without_thinking"":4}",NA,"[0,1]",byst_emotional_impulsivity,/Users/martincz/GitHub/COGS119/group_wi26_moral_character/analysis/../data/raw_data/p06tycu8a34_1772524616873.csv
NA,6663,survey-likert,19,2.0.0,90441,p06tycu8a34,slow,moral,whale,21,male,NA,NA,"{""B_cert_conflicted_RS"":5,""B_cert_quite_certain"":4,""B_cert_far_from_alternative"":3,""B_cert_reservations_RS"":2}",NA,"[0,2,3,1]",byst_certainty,/Users/martincz/GitHub/COGS119/group_wi26_moral_character/analysis/../data/raw_data/p06tycu8a34_1772524616873.csv
NA,2591,survey-text,20,2.0.0,93036,p06tycu8a34,slow,moral,whale,21,male,NA,NA,"{""participant_age"":""21""}",NA,NA,NA,/Users/martincz/GitHub/COGS119/group_wi26_moral_character/analysis/../data/raw_data/p06tycu8a34_1772524616873.csv
NA,1943,survey-text,21,2.0.0,94982,p06tycu8a34,slow,moral,whale,21,male,NA,NA,"{""gender"":""male""}",NA,NA,NA,/Users/martincz/GitHub/COGS119/group_wi26_moral_character/analysis/../data/raw_data/p06tycu8a34_1772524616873.csv
NA,13941,survey-likert,22,2.0.0,108927,p06tycu8a34,slow,moral,whale,21,male,NA,NA,"{""ma_gut_feelings"":5,""ma_character_reflective"":5,""ma_outcomes_matter"":4,""ma_some_actions_wrong"":5,""ma_think_through"":5}",NA,"[0,4,2,3,1]",moral_attitudes,/Users/martincz/GitHub/COGS119/group_wi26_moral_character/analysis/../data/raw_data/p06tycu8a34_1772524616873.csv
NA,14895,survey-text,23,2.0.0,123825,p06tycu8a34,slow,moral,whale,21,male,NA,NA,"{""Q0"":""affect of speed in perception of morality""}",NA,NA,NA,/Users/martincz/GitHub/COGS119/group_wi26_moral_character/analysis/../data/raw_data/p06tycu8a34_1772524616873.csv
TRUE,9703,fullscreen,0,null,10708,p0sfjew6kvk,quick,immoral,pony,21,female,NA,NA,NA,NA,NA,NA,/Users/martincz/GitHub/COGS119/group_wi26_moral_character/analysis/../data/raw_data/p0sfjew6kvk_1772139232472.csv
NA,17340,html-keyboard-response,1,2.0.0,28051,p0sfjew6kvk,quick,immoral,pony,21,female,NA,Welcome to the experiment. Press any key to begin.,NA,NA,NA,NA,/Users/martincz/GitHub/COGS119/group_wi26_moral_character/analysis/../data/raw_data/p0sfjew6kvk_1772139232472.csv
NA,1844,survey-text,2,2.0.0,29909,p0sfjew6kvk,quick,immoral,pony,21,female,NA,NA,"{""participant_id"":""pony""}",NA,NA,NA,/Users/martincz/GitHub/COGS119/group_wi26_moral_character/analysis/../data/raw_data/p0sfjew6kvk_1772139232472.csv
NA,5071,html-keyboard-response,3,2.0.0,34983,p0sfjew6kvk,quick,immoral,pony,21,female,NA,"
   <p>In this experiment, you will be presented with potential scenarios.</p><p>Please read through these carefully.</p>
   <p>You will answer a series of questions afterwards.</p>
   <p>Press any key to begin.</p>
",NA,NA,NA,NA,/Users/martincz/GitHub/COGS119/group_wi26_moral_character/analysis/../data/raw_data/p0sfjew6kvk_1772139232472.csv
NA,24572,html-button-response,4,2.0.0,59557,p0sfjew6kvk,quick,immoral,pony,21,female,NA,"<p>Two people, J and N, were walking to separate cars in the parking lot of Andronico's, a local grocery store, where they each spotted a different lost wallet next to the cars.</p><p> Upon picking up the wallet and looking inside, each found several hundred dollars in cash. Each person considered whether they should return the wallet and money to the Customer Service desk at Andronico's, or pocket the money and drive away.</p>",0,NA,NA,NA,/Users/martincz/GitHub/COGS119/group_wi26_moral_character/analysis/../data/raw_data/p0sfjew6kvk_1772139232472.csv
NA,14645,html-button-response,5,2.0.0,74204,p0sfjew6kvk,quick,immoral,pony,21,female,NA,"<p> N saw their decision as difficult and <i> was only able to decide after long and careful deliberation</i>. After several minutes of thinking in their car, <i> they decided to pocket the money and drive off.</i></p><p> In contrast, J saw their decision as an easy one and was <i> able to decide quickly. J too pocketed the money and drove off. </i></p>",0,immoral_stimulus_2,NA,NA,/Users/martincz/GitHub/COGS119/group_wi26_moral_character/analysis/../data/raw_data/p0sfjew6kvk_1772139232472.csv
NA,7316,survey-likert,6,2.0.0,81522,p0sfjew6kvk,quick,immoral,pony,21,female,NA,NA,"{""j_manipulation_check"":6,""n_manipulation_check"":2}",NA,"[0,1]",NA,/Users/martincz/GitHub/COGS119/group_wi26_moral_character/analysis/../data/raw_data/p0sfjew6kvk_1772139232472.csv
NA,27314,survey-likert,7,2.0.0,108840,p0sfjew6kvk,quick,immoral,pony,21,female,NA,NA,"{""j_standards_eval"":0,""n_standards_eval"":1}",NA,"[0,1]",standards,/Users/martincz/GitHub/COGS119/group_wi26_moral_character/analysis/../data/raw_data/p0sfjew6kvk_1772139232472.csv
NA,8983,survey-likert,8,2.0.0,117825,p0sfjew6kvk,quick,immoral,pony,21,female,NA,NA,"{""j_principles_eval"":0,""n_principles_eval"":1}",NA,"[0,1]",principles,/Users/martincz/GitHub/COGS119/group_wi26_moral_character/analysis/../data/raw_data/p0sfjew6kvk_1772139232472.csv
NA,9952,survey-likert,9,2.0.0,127789,p0sfjew6kvk,quick,immoral,pony,21,female,NA,NA,"{""j_deepness_eval"":0,""n_deepness_eval"":1}",NA,"[0,1]",depth,/Users/martincz/GitHub/COGS119/group_wi26_moral_character/analysis/../data/raw_data/p0sfjew6kvk_1772139232472.csv
NA,12248,survey-likert,10,2.0.0,140050,p0sfjew6kvk,quick,immoral,pony,21,female,NA,NA,"{""j_cert_conflicted_RS"":0,""n_cert_conflicted_RS"":5,""j_cert_reservations_RS"":0,""n_cert_reservations_RS"":4}",NA,"[0,1,2,3]",certainty,/Users/martincz/GitHub/COGS119/group_wi26_moral_character/analysis/../data/raw_data/p0sfjew6kvk_1772139232472.csv
NA,22433,survey-likert,11,2.0.0,162494,p0sfjew6kvk,quick,immoral,pony,21,female,NA,NA,"{""j_cert_quite_certain"":6,""n_cert_quite_certain"":4,""j_cert_far_from_alternative"":5,""n_cert_far_from_alternative"":3}",NA,"[0,1,2,3]",certainty,/Users/martincz/GitHub/COGS119/group_wi26_moral_character/analysis/../data/raw_data/p0sfjew6kvk_1772139232472.csv
NA,12081,survey-likert,12,2.0.0,174588,p0sfjew6kvk,quick,immoral,pony,21,female,NA,NA,"{""j_imp_calm_contained_RS"":6,""n_imp_calm_contained_RS"":4,""j_imp_upset_acted_without_thinking"":1,""n_imp_upset_acted_without_thinking"":1}",NA,"[0,1,2,3]",emotional_impulsivity,/Users/martincz/GitHub/COGS119/group_wi26_moral_character/analysis/../data/raw_data/p0sfjew6kvk_1772139232472.csv
NA,4901,html-button-response,13,2.0.0,179499,p0sfjew6kvk,quick,immoral,pony,21,female,NA,"<p> The next day, B was leaving the local grocery store when they also spotted a lost wallet next to their car.</p><p> Upon picking up the wallet and looking inside, B found several hundred dollars in cash. </p>",0,NA,NA,NA,/Users/martincz/GitHub/COGS119/group_wi26_moral_character/analysis/../data/raw_data/p0sfjew6kvk_1772139232472.csv
NA,5155,html-button-response,14,2.0.0,184656,p0sfjew6kvk,quick,immoral,pony,21,female,NA,<p> B saw their decision as an easy one and was <i> able to decide quickly </i>. B left the wallet where they found it and drove off. </i></p>,0,byst_scenario_quick,NA,NA,/Users/martincz/GitHub/COGS119/group_wi26_moral_character/analysis/../data/raw_data/p0sfjew6kvk_1772139232472.csv
NA,4633,survey-likert,15,2.0.0,189291,p0sfjew6kvk,quick,immoral,pony,21,female,NA,NA,"{""b_principles_eval"":5}",NA,[0],byst_principles,/Users/martincz/GitHub/COGS119/group_wi26_moral_character/analysis/../data/raw_data/p0sfjew6kvk_1772139232472.csv
NA,3145,survey-likert,16,2.0.0,192438,p0sfjew6kvk,quick,immoral,pony,21,female,NA,NA,"{""b_standards_eval"":5}",NA,[0],byst_standards,/Users/martincz/GitHub/COGS119/group_wi26_moral_character/analysis/../data/raw_data/p0sfjew6kvk_1772139232472.csv
NA,2090,survey-likert,17,2.0.0,194530,p0sfjew6kvk,quick,immoral,pony,21,female,NA,NA,"{""b_deepness_eval"":5}",NA,[0],byst_depth,/Users/martincz/GitHub/COGS119/group_wi26_moral_character/analysis/../data/raw_data/p0sfjew6kvk_1772139232472.csv
NA,29401,survey-likert,18,2.0.0,223942,p0sfjew6kvk,quick,immoral,pony,21,female,NA,NA,"{""B_cert_conflicted_RS"":0,""B_cert_far_from_alternative"":5,""B_cert_quite_certain"":4,""B_cert_reservations_RS"":0}",NA,"[0,3,2,1]",byst_certainty,/Users/martincz/GitHub/COGS119/group_wi26_moral_character/analysis/../data/raw_data/p0sfjew6kvk_1772139232472.csv
NA,7517,survey-likert,19,2.0.0,231472,p0sfjew6kvk,quick,immoral,pony,21,female,NA,NA,"{""b_imp_upset_acted_without_thinking"":0,""b_imp_calm_contained_RS"":5}",NA,"[1,0]",byst_emotional_impulsivity,/Users/martincz/GitHub/COGS119/group_wi26_moral_character/analysis/../data/raw_data/p0sfjew6kvk_1772139232472.csv
NA,3174,survey-text,20,2.0.0,234663,p0sfjew6kvk,quick,immoral,pony,21,female,NA,NA,"{""participant_age"":""21""}",NA,NA,NA,/Users/martincz/GitHub/COGS119/group_wi26_moral_character/analysis/../data/raw_data/p0sfjew6kvk_1772139232472.csv
NA,3820,survey-text,21,2.0.0,238489,p0sfjew6kvk,quick,immoral,pony,21,female,NA,NA,"{""gender"":""female""}",NA,NA,NA,/Users/martincz/GitHub/COGS119/group_wi26_moral_character/analysis/../data/raw_data/p0sfjew6kvk_1772139232472.csv
NA,19452,survey-likert,22,2.0.0,257943,p0sfjew6kvk,quick,immoral,pony,21,female,NA,NA,"{""ma_think_through"":5,""ma_gut_feelings"":6,""ma_character_reflective"":5,""ma_some_actions_wrong"":4,""ma_outcomes_matter"":4}",NA,"[1,0,4,3,2]",moral_attitudes,/Users/martincz/GitHub/COGS119/group_wi26_moral_character/analysis/../data/raw_data/p0sfjew6kvk_1772139232472.csv
NA,5255,survey-text,23,2.0.0,263213,p0sfjew6kvk,quick,immoral,pony,21,female,NA,NA,"{""Q0"":""moral dilemmas""}",NA,NA,NA,/Users/martincz/GitHub/COGS119/group_wi26_moral_character/analysis/../data/raw_data/p0sfjew6kvk_1772139232472.csv
TRUE,1786,fullscreen,0,null,2791,p2956xcvuq2,quick,immoral,otter,21,female,NA,NA,NA,NA,NA,NA,/Users/martincz/GitHub/COGS119/group_wi26_moral_character/analysis/../data/raw_data/p2956xcvuq2_1772139916652.csv
NA,1308,html-keyboard-response,1,2.0.0,4099,p2956xcvuq2,quick,immoral,otter,21,female,NA,Welcome to the experiment. Press any key to begin.,n,NA,NA,NA,/Users/martincz/GitHub/COGS119/group_wi26_moral_character/analysis/../data/raw_data/p2956xcvuq2_1772139916652.csv
NA,1837,survey-text,2,2.0.0,5938,p2956xcvuq2,quick,immoral,otter,21,female,NA,NA,"{""participant_id"":""otter""}",NA,NA,NA,/Users/martincz/GitHub/COGS119/group_wi26_moral_character/analysis/../data/raw_data/p2956xcvuq2_1772139916652.csv
NA,3248,html-keyboard-response,3,2.0.0,9187,p2956xcvuq2,quick,immoral,otter,21,female,NA,"
   <p>In this experiment, you will be presented with potential scenarios.</p><p>Please read through these carefully.</p>
   <p>You will answer a series of questions afterwards.</p>
   <p>Press any key to begin.</p>
",m,NA,NA,NA,/Users/martincz/GitHub/COGS119/group_wi26_moral_character/analysis/../data/raw_data/p2956xcvuq2_1772139916652.csv
NA,20595,html-button-response,4,2.0.0,29783,p2956xcvuq2,quick,immoral,otter,21,female,NA,"<p>Two people, J and N, were walking to separate cars in the parking lot of Andronico's, a local grocery store, where they each spotted a different lost wallet next to the cars.</p><p> Upon picking up the wallet and looking inside, each found several hundred dollars in cash. Each person considered whether they should return the wallet and money to the Customer Service desk at Andronico's, or pocket the money and drive away.</p>",0,NA,NA,NA,/Users/martincz/GitHub/COGS119/group_wi26_moral_character/analysis/../data/raw_data/p2956xcvuq2_1772139916652.csv
NA,11454,html-button-response,5,2.0.0,41238,p2956xcvuq2,quick,immoral,otter,21,female,NA,"<p> J saw their decision as an easy one and was <i> able to decide quickly. J pocketed the money and drove off. </i></p><p> In contrast, N saw their decision as difficult and <i> was only able to decide after long and careful deliberation</i>. After several minutes of thinking in their car, <i> N too decided to pocket the money and drive off.</i></p>",0,immoral_stimulus_1,NA,NA,/Users/martincz/GitHub/COGS119/group_wi26_moral_character/analysis/../data/raw_data/p2956xcvuq2_1772139916652.csv
NA,11455,survey-likert,6,2.0.0,52694,p2956xcvuq2,quick,immoral,otter,21,female,NA,NA,"{""n_manipulation_check"":6,""j_manipulation_check"":1}",NA,"[1,0]",NA,/Users/martincz/GitHub/COGS119/group_wi26_moral_character/analysis/../data/raw_data/p2956xcvuq2_1772139916652.csv
NA,43976,survey-likert,7,2.0.0,96672,p2956xcvuq2,quick,immoral,otter,21,female,NA,NA,"{""j_principles_eval"":1,""n_principles_eval"":2}",NA,"[0,1]",principles,/Users/martincz/GitHub/COGS119/group_wi26_moral_character/analysis/../data/raw_data/p2956xcvuq2_1772139916652.csv
NA,16418,survey-likert,8,2.0.0,113090,p2956xcvuq2,quick,immoral,otter,21,female,NA,NA,"{""j_standards_eval"":1,""n_standards_eval"":2}",NA,"[0,1]",standards,/Users/martincz/GitHub/COGS119/group_wi26_moral_character/analysis/../data/raw_data/p2956xcvuq2_1772139916652.csv
NA,20935,survey-likert,9,2.0.0,134026,p2956xcvuq2,quick,immoral,otter,21,female,NA,NA,"{""n_deepness_eval"":4,""j_deepness_eval"":2}",NA,"[1,0]",depth,/Users/martincz/GitHub/COGS119/group_wi26_moral_character/analysis/../data/raw_data/p2956xcvuq2_1772139916652.csv
NA,19228,survey-likert,10,2.0.0,153256,p2956xcvuq2,quick,immoral,otter,21,female,NA,NA,"{""j_cert_conflicted_RS"":0,""n_cert_conflicted_RS"":6,""j_cert_reservations_RS"":0,""n_cert_reservations_RS"":5}",NA,"[0,1,2,3]",certainty,/Users/martincz/GitHub/COGS119/group_wi26_moral_character/analysis/../data/raw_data/p2956xcvuq2_1772139916652.csv
NA,13954,survey-likert,11,2.0.0,167212,p2956xcvuq2,quick,immoral,otter,21,female,NA,NA,"{""j_cert_quite_certain"":6,""n_cert_quite_certain"":1,""j_cert_far_from_alternative"":0,""n_cert_far_from_alternative"":4}",NA,"[0,1,2,3]",certainty,/Users/martincz/GitHub/COGS119/group_wi26_moral_character/analysis/../data/raw_data/p2956xcvuq2_1772139916652.csv
NA,13882,survey-likert,12,2.0.0,181094,p2956xcvuq2,quick,immoral,otter,21,female,NA,NA,"{""j_imp_calm_contained_RS"":6,""n_imp_calm_contained_RS"":2,""j_imp_upset_acted_without_thinking"":0,""n_imp_upset_acted_without_thinking"":0}",NA,"[0,1,2,3]",emotional_impulsivity,/Users/martincz/GitHub/COGS119/group_wi26_moral_character/analysis/../data/raw_data/p2956xcvuq2_1772139916652.csv
NA,5394,html-button-response,13,2.0.0,186489,p2956xcvuq2,quick,immoral,otter,21,female,NA,"<p> The next day, B was leaving the local grocery store when they also spotted a lost wallet next to their car.</p><p> Upon picking up the wallet and looking inside, B found several hundred dollars in cash. </p>",0,NA,NA,NA,/Users/martincz/GitHub/COGS119/group_wi26_moral_character/analysis/../data/raw_data/p2956xcvuq2_1772139916652.csv
NA,3749,html-button-response,14,2.0.0,190239,p2956xcvuq2,quick,immoral,otter,21,female,NA,<p> B saw their decision as an easy one and was <i> able to decide quickly </i>. B left the wallet where they found it and drove off. </i></p>,0,byst_scenario_quick,NA,NA,/Users/martincz/GitHub/COGS119/group_wi26_moral_character/analysis/../data/raw_data/p2956xcvuq2_1772139916652.csv
NA,7572,survey-likert,15,2.0.0,197811,p2956xcvuq2,quick,immoral,otter,21,female,NA,NA,"{""b_principles_eval"":6}",NA,[0],byst_principles,/Users/martincz/GitHub/COGS119/group_wi26_moral_character/analysis/../data/raw_data/p2956xcvuq2_1772139916652.csv
NA,10842,survey-likert,16,2.0.0,208654,p2956xcvuq2,quick,immoral,otter,21,female,NA,NA,"{""b_standards_eval"":6}",NA,[0],byst_standards,/Users/martincz/GitHub/COGS119/group_wi26_moral_character/analysis/../data/raw_data/p2956xcvuq2_1772139916652.csv
NA,5544,survey-likert,17,2.0.0,214199,p2956xcvuq2,quick,immoral,otter,21,female,NA,NA,"{""b_deepness_eval"":5}",NA,[0],byst_depth,/Users/martincz/GitHub/COGS119/group_wi26_moral_character/analysis/../data/raw_data/p2956xcvuq2_1772139916652.csv
NA,14755,survey-likert,18,2.0.0,228954,p2956xcvuq2,quick,immoral,otter,21,female,NA,NA,"{""B_cert_quite_certain"":6,""B_cert_conflicted_RS"":0,""B_cert_far_from_alternative"":0,""B_cert_reservations_RS"":0}",NA,"[2,0,3,1]",byst_certainty,/Users/martincz/GitHub/COGS119/group_wi26_moral_character/analysis/../data/raw_data/p2956xcvuq2_1772139916652.csv
NA,5629,survey-likert,19,2.0.0,234584,p2956xcvuq2,quick,immoral,otter,21,female,NA,NA,"{""b_imp_upset_acted_without_thinking"":0,""b_imp_calm_contained_RS"":6}",NA,"[1,0]",byst_emotional_impulsivity,/Users/martincz/GitHub/COGS119/group_wi26_moral_character/analysis/../data/raw_data/p2956xcvuq2_1772139916652.csv
NA,2455,survey-text,20,2.0.0,237040,p2956xcvuq2,quick,immoral,otter,21,female,NA,NA,"{""participant_age"":""21""}",NA,NA,NA,/Users/martincz/GitHub/COGS119/group_wi26_moral_character/analysis/../data/raw_data/p2956xcvuq2_1772139916652.csv
NA,3726,survey-text,21,2.0.0,240768,p2956xcvuq2,quick,immoral,otter,21,female,NA,NA,"{""gender"":""female""}",NA,NA,NA,/Users/martincz/GitHub/COGS119/group_wi26_moral_character/analysis/../data/raw_data/p2956xcvuq2_1772139916652.csv
NA,37960,survey-likert,22,2.0.0,278729,p2956xcvuq2,quick,immoral,otter,21,female,NA,NA,"{""ma_think_through"":6,""ma_outcomes_matter"":5,""ma_character_reflective"":4,""ma_gut_feelings"":4,""ma_some_actions_wrong"":2}",NA,"[1,2,4,0,3]",moral_attitudes,/Users/martincz/GitHub/COGS119/group_wi26_moral_character/analysis/../data/raw_data/p2956xcvuq2_1772139916652.csv
NA,4984,survey-text,23,2.0.0,283714,p2956xcvuq2,quick,immoral,otter,21,female,NA,NA,"{""Q0"":""n/a""}",NA,NA,NA,/Users/martincz/GitHub/COGS119/group_wi26_moral_character/analysis/../data/raw_data/p2956xcvuq2_1772139916652.csv
TRUE,1570,fullscreen,0,null,2578,p2pjbvjx0eq,slow,immoral,wallaby,22,female,NA,NA,NA,NA,NA,NA,/Users/martincz/GitHub/COGS119/group_wi26_moral_character/analysis/../data/raw_data/p2pjbvjx0eq_1772139864103.csv
NA,1273,html-keyboard-response,1,2.0.0,3853,p2pjbvjx0eq,slow,immoral,wallaby,22,female,NA,Welcome to the experiment. Press any key to begin.,k,NA,NA,NA,/Users/martincz/GitHub/COGS119/group_wi26_moral_character/analysis/../data/raw_data/p2pjbvjx0eq_1772139864103.csv
NA,4267,survey-text,2,2.0.0,8124,p2pjbvjx0eq,slow,immoral,wallaby,22,female,NA,NA,"{""participant_id"":""wallaby""}",NA,NA,NA,/Users/martincz/GitHub/COGS119/group_wi26_moral_character/analysis/../data/raw_data/p2pjbvjx0eq_1772139864103.csv
NA,33321,html-keyboard-response,3,2.0.0,41446,p2pjbvjx0eq,slow,immoral,wallaby,22,female,NA,"
   <p>In this experiment, you will be presented with potential scenarios.</p><p>Please read through these carefully.</p>
   <p>You will answer a series of questions afterwards.</p>
   <p>Press any key to begin.</p>
",j,NA,NA,NA,/Users/martincz/GitHub/COGS119/group_wi26_moral_character/analysis/../data/raw_data/p2pjbvjx0eq_1772139864103.csv
NA,43726,html-button-response,4,2.0.0,85173,p2pjbvjx0eq,slow,immoral,wallaby,22,female,NA,"<p>Two people, J and N, were walking to separate cars in the parking lot of Andronico's, a local grocery store, where they each spotted a different lost wallet next to the cars.</p><p> Upon picking up the wallet and looking inside, each found several hundred dollars in cash. Each person considered whether they should return the wallet and money to the Customer Service desk at Andronico's, or pocket the money and drive away.</p>",0,NA,NA,NA,/Users/martincz/GitHub/COGS119/group_wi26_moral_character/analysis/../data/raw_data/p2pjbvjx0eq_1772139864103.csv
NA,37715,html-button-response,5,2.0.0,122889,p2pjbvjx0eq,slow,immoral,wallaby,22,female,NA,"<p> N saw their decision as difficult and <i> was only able to decide after long and careful deliberation</i>. After several minutes of thinking in their car, <i> they decided to pocket the money and drive off.</i></p><p> In contrast, J saw their decision as an easy one and was <i> able to decide quickly. J too pocketed the money and drove off. </i></p>",0,immoral_stimulus_2,NA,NA,/Users/martincz/GitHub/COGS119/group_wi26_moral_character/analysis/../data/raw_data/p2pjbvjx0eq_1772139864103.csv
NA,41317,survey-likert,6,2.0.0,164207,p2pjbvjx0eq,slow,immoral,wallaby,22,female,NA,NA,"{""j_manipulation_check"":6,""n_manipulation_check"":0}",NA,"[0,1]",NA,/Users/martincz/GitHub/COGS119/group_wi26_moral_character/analysis/../data/raw_data/p2pjbvjx0eq_1772139864103.csv
NA,75732,survey-likert,7,2.0.0,239941,p2pjbvjx0eq,slow,immoral,wallaby,22,female,NA,NA,"{""n_principles_eval"":2,""j_principles_eval"":0}",NA,"[1,0]",principles,/Users/martincz/GitHub/COGS119/group_wi26_moral_character/analysis/../data/raw_data/p2pjbvjx0eq_1772139864103.csv
NA,51932,survey-likert,8,2.0.0,291867,p2pjbvjx0eq,slow,immoral,wallaby,22,female,NA,NA,"{""j_standards_eval"":0,""n_standards_eval"":2}",NA,"[0,1]",standards,/Users/martincz/GitHub/COGS119/group_wi26_moral_character/analysis/../data/raw_data/p2pjbvjx0eq_1772139864103.csv
NA,49515,survey-likert,9,2.0.0,341365,p2pjbvjx0eq,slow,immoral,wallaby,22,female,NA,NA,"{""n_deepness_eval"":3,""j_deepness_eval"":0}",NA,"[1,0]",depth,/Users/martincz/GitHub/COGS119/group_wi26_moral_character/analysis/../data/raw_data/p2pjbvjx0eq_1772139864103.csv
NA,53733,survey-likert,10,2.0.0,395099,p2pjbvjx0eq,slow,immoral,wallaby,22,female,NA,NA,"{""j_cert_conflicted_RS"":0,""n_cert_conflicted_RS"":5,""j_cert_reservations_RS"":0,""n_cert_reservations_RS"":5}",NA,"[0,1,2,3]",certainty,/Users/martincz/GitHub/COGS119/group_wi26_moral_character/analysis/../data/raw_data/p2pjbvjx0eq_1772139864103.csv
NA,152566,survey-likert,11,2.0.0,547663,p2pjbvjx0eq,slow,immoral,wallaby,22,female,NA,NA,"{""j_cert_quite_certain"":6,""n_cert_quite_certain"":0,""j_cert_far_from_alternative"":6,""n_cert_far_from_alternative"":1}",NA,"[0,1,2,3]",certainty,/Users/martincz/GitHub/COGS119/group_wi26_moral_character/analysis/../data/raw_data/p2pjbvjx0eq_1772139864103.csv
NA,60033,survey-likert,12,2.0.0,607697,p2pjbvjx0eq,slow,immoral,wallaby,22,female,NA,NA,"{""j_imp_calm_contained_RS"":6,""n_imp_calm_contained_RS"":0,""j_imp_upset_acted_without_thinking"":0,""n_imp_upset_acted_without_thinking"":6}",NA,"[0,1,2,3]",emotional_impulsivity,/Users/martincz/GitHub/COGS119/group_wi26_moral_character/analysis/../data/raw_data/p2pjbvjx0eq_1772139864103.csv
NA,23233,html-button-response,13,2.0.0,630930,p2pjbvjx0eq,slow,immoral,wallaby,22,female,NA,"<p> The next day, B was leaving the local grocery store when they also spotted a lost wallet next to their car.</p><p> Upon picking up the wallet and looking inside, B found several hundred dollars in cash. </p>",0,NA,NA,NA,/Users/martincz/GitHub/COGS119/group_wi26_moral_character/analysis/../data/raw_data/p2pjbvjx0eq_1772139864103.csv
NA,103434,html-button-response,14,2.0.0,734362,p2pjbvjx0eq,slow,immoral,wallaby,22,female,NA,"<p> B saw their decision as difficult and <i> was only able to decide after long and careful deliberation</i>. After several minutes of thinking, B decided to leave the wallet where they found it and drove off. </p>",0,byst_scenario_slow,NA,NA,/Users/martincz/GitHub/COGS119/group_wi26_moral_character/analysis/../data/raw_data/p2pjbvjx0eq_1772139864103.csv
NA,18316,survey-likert,15,2.0.0,752680,p2pjbvjx0eq,slow,immoral,wallaby,22,female,NA,NA,"{""b_standards_eval"":5}",NA,[0],byst_standards,/Users/martincz/GitHub/COGS119/group_wi26_moral_character/analysis/../data/raw_data/p2pjbvjx0eq_1772139864103.csv
NA,7480,survey-likert,16,2.0.0,760161,p2pjbvjx0eq,slow,immoral,wallaby,22,female,NA,NA,"{""b_principles_eval"":5}",NA,[0],byst_principles,/Users/martincz/GitHub/COGS119/group_wi26_moral_character/analysis/../data/raw_data/p2pjbvjx0eq_1772139864103.csv
NA,31282,survey-likert,17,2.0.0,791445,p2pjbvjx0eq,slow,immoral,wallaby,22,female,NA,NA,"{""b_deepness_eval"":6}",NA,[0],byst_depth,/Users/martincz/GitHub/COGS119/group_wi26_moral_character/analysis/../data/raw_data/p2pjbvjx0eq_1772139864103.csv
NA,38633,survey-likert,18,2.0.0,830079,p2pjbvjx0eq,slow,immoral,wallaby,22,female,NA,NA,"{""b_imp_upset_acted_without_thinking"":0,""b_imp_calm_contained_RS"":6}",NA,"[1,0]",byst_emotional_impulsivity,/Users/martincz/GitHub/COGS119/group_wi26_moral_character/analysis/../data/raw_data/p2pjbvjx0eq_1772139864103.csv
NA,30398,survey-likert,19,2.0.0,860478,p2pjbvjx0eq,slow,immoral,wallaby,22,female,NA,NA,"{""B_cert_reservations_RS"":6,""B_cert_far_from_alternative"":0,""B_cert_quite_certain"":0,""B_cert_conflicted_RS"":6}",NA,"[1,3,2,0]",byst_certainty,/Users/martincz/GitHub/COGS119/group_wi26_moral_character/analysis/../data/raw_data/p2pjbvjx0eq_1772139864103.csv
NA,2799,survey-text,20,2.0.0,863280,p2pjbvjx0eq,slow,immoral,wallaby,22,female,NA,NA,"{""participant_age"":""22""}",NA,NA,NA,/Users/martincz/GitHub/COGS119/group_wi26_moral_character/analysis/../data/raw_data/p2pjbvjx0eq_1772139864103.csv
NA,5796,survey-text,21,2.0.0,869078,p2pjbvjx0eq,slow,immoral,wallaby,22,female,NA,NA,"{""gender"":""female""}",NA,NA,NA,/Users/martincz/GitHub/COGS119/group_wi26_moral_character/analysis/../data/raw_data/p2pjbvjx0eq_1772139864103.csv
NA,51482,survey-likert,22,2.0.0,920561,p2pjbvjx0eq,slow,immoral,wallaby,22,female,NA,NA,"{""ma_character_reflective"":5,""ma_gut_feelings"":4,""ma_think_through"":6,""ma_some_actions_wrong"":5,""ma_outcomes_matter"":1}",NA,"[4,0,1,3,2]",moral_attitudes,/Users/martincz/GitHub/COGS119/group_wi26_moral_character/analysis/../data/raw_data/p2pjbvjx0eq_1772139864103.csv
NA,62549,survey-text,23,2.0.0,983111,p2pjbvjx0eq,slow,immoral,wallaby,22,female,NA,NA,"{""Q0"":""I think this experiment was about moral judgment""}",NA,NA,NA,/Users/martincz/GitHub/COGS119/group_wi26_moral_character/analysis/../data/raw_data/p2pjbvjx0eq_1772139864103.csv
TRUE,3531,fullscreen,0,null,4537,p4732xl89nm,quick,immoral,goose,22,male,NA,NA,NA,NA,NA,NA,/Users/martincz/GitHub/COGS119/group_wi26_moral_character/analysis/../data/raw_data/p4732xl89nm_1772138110646.csv
NA,2849,html-keyboard-response,1,2.0.0,7389,p4732xl89nm,quick,immoral,goose,22,male,NA,Welcome to the experiment. Press any key to begin.,Enter,NA,NA,NA,/Users/martincz/GitHub/COGS119/group_wi26_moral_character/analysis/../data/raw_data/p4732xl89nm_1772138110646.csv
NA,3672,survey-text,2,2.0.0,11069,p4732xl89nm,quick,immoral,goose,22,male,NA,NA,"{""participant_id"":""goose""}",NA,NA,NA,/Users/martincz/GitHub/COGS119/group_wi26_moral_character/analysis/../data/raw_data/p4732xl89nm_1772138110646.csv
NA,8599,html-keyboard-response,3,2.0.0,19670,p4732xl89nm,quick,immoral,goose,22,male,NA,"
   <p>In this experiment, you will be presented with potential scenarios.</p><p>Please read through these carefully.</p>
   <p>You will answer a series of questions afterwards.</p>
   <p>Press any key to begin.</p>
",Enter,NA,NA,NA,/Users/martincz/GitHub/COGS119/group_wi26_moral_character/analysis/../data/raw_data/p4732xl89nm_1772138110646.csv
NA,11746,html-button-response,4,2.0.0,31419,p4732xl89nm,quick,immoral,goose,22,male,NA,"<p>Two people, J and N, were walking to separate cars in the parking lot of Andronico's, a local grocery store, where they each spotted a different lost wallet next to the cars.</p><p> Upon picking up the wallet and looking inside, each found several hundred dollars in cash. Each person considered whether they should return the wallet and money to the Customer Service desk at Andronico's, or pocket the money and drive away.</p>",0,NA,NA,NA,/Users/martincz/GitHub/COGS119/group_wi26_moral_character/analysis/../data/raw_data/p4732xl89nm_1772138110646.csv
NA,8997,html-button-response,5,2.0.0,40418,p4732xl89nm,quick,immoral,goose,22,male,NA,"<p> J saw their decision as an easy one and was <i> able to decide quickly. J pocketed the money and drove off. </i></p><p> In contrast, N saw their decision as difficult and <i> was only able to decide after long and careful deliberation</i>. After several minutes of thinking in their car, <i> N too decided to pocket the money and drive off.</i></p>",0,immoral_stimulus_1,NA,NA,/Users/martincz/GitHub/COGS119/group_wi26_moral_character/analysis/../data/raw_data/p4732xl89nm_1772138110646.csv
NA,10814,survey-likert,6,2.0.0,51235,p4732xl89nm,quick,immoral,goose,22,male,NA,NA,"{""j_manipulation_check"":6,""n_manipulation_check"":0}",NA,"[0,1]",NA,/Users/martincz/GitHub/COGS119/group_wi26_moral_character/analysis/../data/raw_data/p4732xl89nm_1772138110646.csv
NA,29147,survey-likert,7,2.0.0,80387,p4732xl89nm,quick,immoral,goose,22,male,NA,NA,"{""n_principles_eval"":2,""j_principles_eval"":1}",NA,"[1,0]",principles,/Users/martincz/GitHub/COGS119/group_wi26_moral_character/analysis/../data/raw_data/p4732xl89nm_1772138110646.csv
NA,18079,survey-likert,8,2.0.0,98470,p4732xl89nm,quick,immoral,goose,22,male,NA,NA,"{""j_standards_eval"":1,""n_standards_eval"":5}",NA,"[0,1]",standards,/Users/martincz/GitHub/COGS119/group_wi26_moral_character/analysis/../data/raw_data/p4732xl89nm_1772138110646.csv
NA,15044,survey-likert,9,2.0.0,113519,p4732xl89nm,quick,immoral,goose,22,male,NA,NA,"{""j_deepness_eval"":0,""n_deepness_eval"":4}",NA,"[0,1]",depth,/Users/martincz/GitHub/COGS119/group_wi26_moral_character/analysis/../data/raw_data/p4732xl89nm_1772138110646.csv
NA,21630,survey-likert,10,2.0.0,135155,p4732xl89nm,quick,immoral,goose,22,male,NA,NA,"{""j_cert_conflicted_RS"":0,""n_cert_conflicted_RS"":5,""j_cert_reservations_RS"":0,""n_cert_reservations_RS"":5}",NA,"[0,1,2,3]",certainty,/Users/martincz/GitHub/COGS119/group_wi26_moral_character/analysis/../data/raw_data/p4732xl89nm_1772138110646.csv
NA,29493,survey-likert,11,2.0.0,164653,p4732xl89nm,quick,immoral,goose,22,male,NA,NA,"{""j_cert_quite_certain"":6,""n_cert_quite_certain"":2,""j_cert_far_from_alternative"":6,""n_cert_far_from_alternative"":2}",NA,"[0,1,2,3]",certainty,/Users/martincz/GitHub/COGS119/group_wi26_moral_character/analysis/../data/raw_data/p4732xl89nm_1772138110646.csv
NA,14029,survey-likert,12,2.0.0,178686,p4732xl89nm,quick,immoral,goose,22,male,NA,NA,"{""j_imp_calm_contained_RS"":6,""n_imp_calm_contained_RS"":2,""j_imp_upset_acted_without_thinking"":0,""n_imp_upset_acted_without_thinking"":3}",NA,"[0,1,2,3]",emotional_impulsivity,/Users/martincz/GitHub/COGS119/group_wi26_moral_character/analysis/../data/raw_data/p4732xl89nm_1772138110646.csv
NA,11964,html-button-response,13,2.0.0,190652,p4732xl89nm,quick,immoral,goose,22,male,NA,"<p> The next day, B was leaving the local grocery store when they also spotted a lost wallet next to their car.</p><p> Upon picking up the wallet and looking inside, B found several hundred dollars in cash. </p>",0,NA,NA,NA,/Users/martincz/GitHub/COGS119/group_wi26_moral_character/analysis/../data/raw_data/p4732xl89nm_1772138110646.csv
NA,8232,html-button-response,14,2.0.0,198886,p4732xl89nm,quick,immoral,goose,22,male,NA,<p> B saw their decision as an easy one and was <i> able to decide quickly </i>. B left the wallet where they found it and drove off. </i></p>,0,byst_scenario_quick,NA,NA,/Users/martincz/GitHub/COGS119/group_wi26_moral_character/analysis/../data/raw_data/p4732xl89nm_1772138110646.csv
NA,12647,survey-likert,15,2.0.0,211538,p4732xl89nm,quick,immoral,goose,22,male,NA,NA,"{""b_principles_eval"":6}",NA,[0],byst_principles,/Users/martincz/GitHub/COGS119/group_wi26_moral_character/analysis/../data/raw_data/p4732xl89nm_1772138110646.csv
NA,4394,survey-likert,16,2.0.0,215936,p4732xl89nm,quick,immoral,goose,22,male,NA,NA,"{""b_standards_eval"":6}",NA,[0],byst_standards,/Users/martincz/GitHub/COGS119/group_wi26_moral_character/analysis/../data/raw_data/p4732xl89nm_1772138110646.csv
NA,8614,survey-likert,17,2.0.0,224555,p4732xl89nm,quick,immoral,goose,22,male,NA,NA,"{""b_deepness_eval"":6}",NA,[0],byst_depth,/Users/martincz/GitHub/COGS119/group_wi26_moral_character/analysis/../data/raw_data/p4732xl89nm_1772138110646.csv
NA,19344,survey-likert,18,2.0.0,243904,p4732xl89nm,quick,immoral,goose,22,male,NA,NA,"{""B_cert_quite_certain"":6,""B_cert_reservations_RS"":0,""B_cert_far_from_alternative"":6,""B_cert_conflicted_RS"":0}",NA,"[2,1,3,0]",byst_certainty,/Users/martincz/GitHub/COGS119/group_wi26_moral_character/analysis/../data/raw_data/p4732xl89nm_1772138110646.csv
NA,6529,survey-likert,19,2.0.0,250437,p4732xl89nm,quick,immoral,goose,22,male,NA,NA,"{""b_imp_calm_contained_RS"":6,""b_imp_upset_acted_without_thinking"":0}",NA,"[0,1]",byst_emotional_impulsivity,/Users/martincz/GitHub/COGS119/group_wi26_moral_character/analysis/../data/raw_data/p4732xl89nm_1772138110646.csv
NA,3092,survey-text,20,2.0.0,253535,p4732xl89nm,quick,immoral,goose,22,male,NA,NA,"{""participant_age"":""22""}",NA,NA,NA,/Users/martincz/GitHub/COGS119/group_wi26_moral_character/analysis/../data/raw_data/p4732xl89nm_1772138110646.csv
NA,1886,survey-text,21,2.0.0,255423,p4732xl89nm,quick,immoral,goose,22,male,NA,NA,"{""gender"":""male""}",NA,NA,NA,/Users/martincz/GitHub/COGS119/group_wi26_moral_character/analysis/../data/raw_data/p4732xl89nm_1772138110646.csv
NA,53244,survey-likert,22,2.0.0,308673,p4732xl89nm,quick,immoral,goose,22,male,NA,NA,"{""ma_think_through"":3,""ma_outcomes_matter"":4,""ma_gut_feelings"":6,""ma_some_actions_wrong"":6,""ma_character_reflective"":1}",NA,"[1,2,0,3,4]",moral_attitudes,/Users/martincz/GitHub/COGS119/group_wi26_moral_character/analysis/../data/raw_data/p4732xl89nm_1772138110646.csv
NA,68114,survey-text,23,2.0.0,376794,p4732xl89nm,quick,immoral,goose,22,male,NA,NA,"{""Q0"":""something about rating morality from people's actions. One condition with J and N sees if another person's action can affect how moral they are perceived. No issues. Spotted some punctuation errors""}",NA,NA,NA,/Users/martincz/GitHub/COGS119/group_wi26_moral_character/analysis/../data/raw_data/p4732xl89nm_1772138110646.csv
TRUE,6410,fullscreen,0,null,7416,p4s87kqkvfc,slow,immoral,antelope,23,female,NA,NA,NA,NA,NA,NA,/Users/martincz/GitHub/COGS119/group_wi26_moral_character/analysis/../data/raw_data/p4s87kqkvfc_1772141887306.csv
NA,1055,html-keyboard-response,1,2.0.0,8472,p4s87kqkvfc,slow,immoral,antelope,23,female,NA,Welcome to the experiment. Press any key to begin.,NA,NA,NA,NA,/Users/martincz/GitHub/COGS119/group_wi26_moral_character/analysis/../data/raw_data/p4s87kqkvfc_1772141887306.csv
NA,3656,survey-text,2,2.0.0,12133,p4s87kqkvfc,slow,immoral,antelope,23,female,NA,NA,"{""participant_id"":""antelope""}",NA,NA,NA,/Users/martincz/GitHub/COGS119/group_wi26_moral_character/analysis/../data/raw_data/p4s87kqkvfc_1772141887306.csv
NA,3787,html-keyboard-response,3,2.0.0,15921,p4s87kqkvfc,slow,immoral,antelope,23,female,NA,"
   <p>In this experiment, you will be presented with potential scenarios.</p><p>Please read through these carefully.</p>
   <p>You will answer a series of questions afterwards.</p>
   <p>Press any key to begin.</p>
",NA,NA,NA,NA,/Users/martincz/GitHub/COGS119/group_wi26_moral_character/analysis/../data/raw_data/p4s87kqkvfc_1772141887306.csv
NA,46705,html-button-response,4,2.0.0,62630,p4s87kqkvfc,slow,immoral,antelope,23,female,NA,"<p>Two people, J and N, were walking to separate cars in the parking lot of Andronico's, a local grocery store, where they each spotted a different lost wallet next to the cars.</p><p> Upon picking up the wallet and looking inside, each found several hundred dollars in cash. Each person considered whether they should return the wallet and money to the Customer Service desk at Andronico's, or pocket the money and drive away.</p>",0,NA,NA,NA,/Users/martincz/GitHub/COGS119/group_wi26_moral_character/analysis/../data/raw_data/p4s87kqkvfc_1772141887306.csv
NA,3566,html-button-response,5,2.0.0,66198,p4s87kqkvfc,slow,immoral,antelope,23,female,NA,"<p> J saw their decision as an easy one and was <i> able to decide quickly. J pocketed the money and drove off. </i></p><p> In contrast, N saw their decision as difficult and <i> was only able to decide after long and careful deliberation</i>. After several minutes of thinking in their car, <i> N too decided to pocket the money and drive off.</i></p>",0,immoral_stimulus_1,NA,NA,/Users/martincz/GitHub/COGS119/group_wi26_moral_character/analysis/../data/raw_data/p4s87kqkvfc_1772141887306.csv
NA,7130,survey-likert,6,2.0.0,73332,p4s87kqkvfc,slow,immoral,antelope,23,female,NA,NA,"{""j_manipulation_check"":4,""n_manipulation_check"":5}",NA,"[0,1]",NA,/Users/martincz/GitHub/COGS119/group_wi26_moral_character/analysis/../data/raw_data/p4s87kqkvfc_1772141887306.csv
NA,8440,survey-likert,7,2.0.0,81775,p4s87kqkvfc,slow,immoral,antelope,23,female,NA,NA,"{""j_standards_eval"":6,""n_standards_eval"":4}",NA,"[0,1]",standards,/Users/martincz/GitHub/COGS119/group_wi26_moral_character/analysis/../data/raw_data/p4s87kqkvfc_1772141887306.csv
NA,5348,survey-likert,8,2.0.0,87126,p4s87kqkvfc,slow,immoral,antelope,23,female,NA,NA,"{""n_principles_eval"":6,""j_principles_eval"":3}",NA,"[1,0]",principles,/Users/martincz/GitHub/COGS119/group_wi26_moral_character/analysis/../data/raw_data/p4s87kqkvfc_1772141887306.csv
NA,6239,survey-likert,9,2.0.0,93367,p4s87kqkvfc,slow,immoral,antelope,23,female,NA,NA,"{""n_deepness_eval"":6,""j_deepness_eval"":4}",NA,"[1,0]",depth,/Users/martincz/GitHub/COGS119/group_wi26_moral_character/analysis/../data/raw_data/p4s87kqkvfc_1772141887306.csv
NA,20452,survey-likert,10,2.0.0,113821,p4s87kqkvfc,slow,immoral,antelope,23,female,NA,NA,"{""j_cert_conflicted_RS"":4,""n_cert_conflicted_RS"":3,""j_cert_reservations_RS"":5,""n_cert_reservations_RS"":6}",NA,"[0,1,2,3]",certainty,/Users/martincz/GitHub/COGS119/group_wi26_moral_character/analysis/../data/raw_data/p4s87kqkvfc_1772141887306.csv
NA,56030,survey-likert,11,2.0.0,169854,p4s87kqkvfc,slow,immoral,antelope,23,female,NA,NA,"{""j_cert_quite_certain"":6,""n_cert_quite_certain"":2,""j_cert_far_from_alternative"":3,""n_cert_far_from_alternative"":6}",NA,"[0,1,2,3]",certainty,/Users/martincz/GitHub/COGS119/group_wi26_moral_character/analysis/../data/raw_data/p4s87kqkvfc_1772141887306.csv
NA,24060,survey-likert,12,2.0.0,193918,p4s87kqkvfc,slow,immoral,antelope,23,female,NA,NA,"{""j_imp_calm_contained_RS"":6,""n_imp_calm_contained_RS"":4,""j_imp_upset_acted_without_thinking"":5,""n_imp_upset_acted_without_thinking"":6}",NA,"[0,1,2,3]",emotional_impulsivity,/Users/martincz/GitHub/COGS119/group_wi26_moral_character/analysis/../data/raw_data/p4s87kqkvfc_1772141887306.csv
NA,6155,html-button-response,13,2.0.0,200075,p4s87kqkvfc,slow,immoral,antelope,23,female,NA,"<p> The next day, B was leaving the local grocery store when they also spotted a lost wallet next to their car.</p><p> Upon picking up the wallet and looking inside, B found several hundred dollars in cash. </p>",0,NA,NA,NA,/Users/martincz/GitHub/COGS119/group_wi26_moral_character/analysis/../data/raw_data/p4s87kqkvfc_1772141887306.csv
NA,6269,html-button-response,14,2.0.0,206345,p4s87kqkvfc,slow,immoral,antelope,23,female,NA,"<p> B saw their decision as difficult and <i> was only able to decide after long and careful deliberation</i>. After several minutes of thinking, B decided to leave the wallet where they found it and drove off. </p>",0,byst_scenario_slow,NA,NA,/Users/martincz/GitHub/COGS119/group_wi26_moral_character/analysis/../data/raw_data/p4s87kqkvfc_1772141887306.csv
NA,4506,survey-likert,15,2.0.0,210854,p4s87kqkvfc,slow,immoral,antelope,23,female,NA,NA,"{""b_standards_eval"":5}",NA,[0],byst_standards,/Users/martincz/GitHub/COGS119/group_wi26_moral_character/analysis/../data/raw_data/p4s87kqkvfc_1772141887306.csv
NA,7875,survey-likert,16,2.0.0,218731,p4s87kqkvfc,slow,immoral,antelope,23,female,NA,NA,"{""b_principles_eval"":6}",NA,[0],byst_principles,/Users/martincz/GitHub/COGS119/group_wi26_moral_character/analysis/../data/raw_data/p4s87kqkvfc_1772141887306.csv
NA,6147,survey-likert,17,2.0.0,224880,p4s87kqkvfc,slow,immoral,antelope,23,female,NA,NA,"{""b_deepness_eval"":3}",NA,[0],byst_depth,/Users/martincz/GitHub/COGS119/group_wi26_moral_character/analysis/../data/raw_data/p4s87kqkvfc_1772141887306.csv
NA,27343,survey-likert,18,2.0.0,252227,p4s87kqkvfc,slow,immoral,antelope,23,female,NA,NA,"{""B_cert_quite_certain"":6,""B_cert_reservations_RS"":3,""B_cert_conflicted_RS"":4,""B_cert_far_from_alternative"":5}",NA,"[2,1,0,3]",byst_certainty,/Users/martincz/GitHub/COGS119/group_wi26_moral_character/analysis/../data/raw_data/p4s87kqkvfc_1772141887306.csv
NA,10318,survey-likert,19,2.0.0,262547,p4s87kqkvfc,slow,immoral,antelope,23,female,NA,NA,"{""b_imp_upset_acted_without_thinking"":1,""b_imp_calm_contained_RS"":6}",NA,"[1,0]",byst_emotional_impulsivity,/Users/martincz/GitHub/COGS119/group_wi26_moral_character/analysis/../data/raw_data/p4s87kqkvfc_1772141887306.csv
NA,1368,survey-text,20,2.0.0,263918,p4s87kqkvfc,slow,immoral,antelope,23,female,NA,NA,"{""participant_age"":""23""}",NA,NA,NA,/Users/martincz/GitHub/COGS119/group_wi26_moral_character/analysis/../data/raw_data/p4s87kqkvfc_1772141887306.csv
NA,2027,survey-text,21,2.0.0,265948,p4s87kqkvfc,slow,immoral,antelope,23,female,NA,NA,"{""gender"":""female""}",NA,NA,NA,/Users/martincz/GitHub/COGS119/group_wi26_moral_character/analysis/../data/raw_data/p4s87kqkvfc_1772141887306.csv
NA,36664,survey-likert,22,2.0.0,302615,p4s87kqkvfc,slow,immoral,antelope,23,female,NA,NA,"{""ma_outcomes_matter"":6,""ma_some_actions_wrong"":0,""ma_think_through"":4,""ma_gut_feelings"":4,""ma_character_reflective"":6}",NA,"[2,3,1,0,4]",moral_attitudes,/Users/martincz/GitHub/COGS119/group_wi26_moral_character/analysis/../data/raw_data/p4s87kqkvfc_1772141887306.csv
NA,4303,survey-text,23,2.0.0,306921,p4s87kqkvfc,slow,immoral,antelope,23,female,NA,NA,"{""Q0"":""morality""}",NA,NA,NA,/Users/martincz/GitHub/COGS119/group_wi26_moral_character/analysis/../data/raw_data/p4s87kqkvfc_1772141887306.csv
TRUE,1384,fullscreen,0,null,2392,p5a5napt8o8,quick,moral,wolf,20,female,NA,NA,NA,NA,NA,NA,/Users/martincz/GitHub/COGS119/group_wi26_moral_character/analysis/../data/raw_data/p5a5napt8o8_1772140505300.csv
NA,1067,html-keyboard-response,1,2.0.0,3461,p5a5napt8o8,quick,moral,wolf,20,female,NA,Welcome to the experiment. Press any key to begin.,NA,NA,NA,NA,/Users/martincz/GitHub/COGS119/group_wi26_moral_character/analysis/../data/raw_data/p5a5napt8o8_1772140505300.csv
NA,5403,survey-text,2,2.0.0,8866,p5a5napt8o8,quick,moral,wolf,20,female,NA,NA,"{""participant_id"":""wolf""}",NA,NA,NA,/Users/martincz/GitHub/COGS119/group_wi26_moral_character/analysis/../data/raw_data/p5a5napt8o8_1772140505300.csv
NA,2684,html-keyboard-response,3,2.0.0,11551,p5a5napt8o8,quick,moral,wolf,20,female,NA,"
   <p>In this experiment, you will be presented with potential scenarios.</p><p>Please read through these carefully.</p>
   <p>You will answer a series of questions afterwards.</p>
   <p>Press any key to begin.</p>
",NA,NA,NA,NA,/Users/martincz/GitHub/COGS119/group_wi26_moral_character/analysis/../data/raw_data/p5a5napt8o8_1772140505300.csv
NA,10562,html-button-response,4,2.0.0,22114,p5a5napt8o8,quick,moral,wolf,20,female,NA,"<p>Two people, J and N, were walking to separate cars in the parking lot of Andronico's, a local grocery store, where they each spotted a different lost wallet next to the cars.</p><p> Upon picking up the wallet and looking inside, each found several hundred dollars in cash. Each person considered whether they should return the wallet and money to the Customer Service desk at Andronico's, or pocket the money and drive away.</p>",0,NA,NA,NA,/Users/martincz/GitHub/COGS119/group_wi26_moral_character/analysis/../data/raw_data/p5a5napt8o8_1772140505300.csv
NA,10048,html-button-response,5,2.0.0,32162,p5a5napt8o8,quick,moral,wolf,20,female,NA,"<p> J saw their decision as an easy one and was <i> able to decide quickly. J did not steal the money </i> and instead left the wallet with Customer Service.</p><p> In contrast, N saw their decision as difficult and <i> was only able to decide after long and careful deliberation</i>. After several minutes of thinking in their car, <i> N too decided not to steal the money </i> and instead left the wallet with customer service. </i><br> </p>",0,moral_stimulus_1,NA,NA,/Users/martincz/GitHub/COGS119/group_wi26_moral_character/analysis/../data/raw_data/p5a5napt8o8_1772140505300.csv
NA,8698,survey-likert,6,2.0.0,40861,p5a5napt8o8,quick,moral,wolf,20,female,NA,NA,"{""j_manipulation_check"":6,""n_manipulation_check"":0}",NA,"[0,1]",NA,/Users/martincz/GitHub/COGS119/group_wi26_moral_character/analysis/../data/raw_data/p5a5napt8o8_1772140505300.csv
NA,17013,survey-likert,7,2.0.0,57875,p5a5napt8o8,quick,moral,wolf,20,female,NA,NA,"{""n_standards_eval"":4,""j_standards_eval"":6}",NA,"[1,0]",standards,/Users/martincz/GitHub/COGS119/group_wi26_moral_character/analysis/../data/raw_data/p5a5napt8o8_1772140505300.csv
NA,16000,survey-likert,8,2.0.0,73876,p5a5napt8o8,quick,moral,wolf,20,female,NA,NA,"{""n_principles_eval"":4,""j_principles_eval"":5}",NA,"[1,0]",principles,/Users/martincz/GitHub/COGS119/group_wi26_moral_character/analysis/../data/raw_data/p5a5napt8o8_1772140505300.csv
NA,37196,survey-likert,9,2.0.0,111073,p5a5napt8o8,quick,moral,wolf,20,female,NA,NA,"{""j_deepness_eval"":6,""n_deepness_eval"":6}",NA,"[0,1]",depth,/Users/martincz/GitHub/COGS119/group_wi26_moral_character/analysis/../data/raw_data/p5a5napt8o8_1772140505300.csv
NA,11538,survey-likert,10,2.0.0,122612,p5a5napt8o8,quick,moral,wolf,20,female,NA,NA,"{""j_cert_conflicted_RS"":0,""n_cert_conflicted_RS"":5,""j_cert_reservations_RS"":0,""n_cert_reservations_RS"":5}",NA,"[0,1,2,3]",certainty,/Users/martincz/GitHub/COGS119/group_wi26_moral_character/analysis/../data/raw_data/p5a5napt8o8_1772140505300.csv
NA,17142,survey-likert,11,2.0.0,139756,p5a5napt8o8,quick,moral,wolf,20,female,NA,NA,"{""j_cert_quite_certain"":6,""n_cert_quite_certain"":0,""j_cert_far_from_alternative"":0,""n_cert_far_from_alternative"":5}",NA,"[0,1,2,3]",certainty,/Users/martincz/GitHub/COGS119/group_wi26_moral_character/analysis/../data/raw_data/p5a5napt8o8_1772140505300.csv
NA,14748,survey-likert,12,2.0.0,154504,p5a5napt8o8,quick,moral,wolf,20,female,NA,NA,"{""j_imp_calm_contained_RS"":4,""n_imp_calm_contained_RS"":2,""j_imp_upset_acted_without_thinking"":0,""n_imp_upset_acted_without_thinking"":0}",NA,"[0,1,2,3]",emotional_impulsivity,/Users/martincz/GitHub/COGS119/group_wi26_moral_character/analysis/../data/raw_data/p5a5napt8o8_1772140505300.csv
NA,4284,html-button-response,13,2.0.0,158789,p5a5napt8o8,quick,moral,wolf,20,female,NA,"<p> The next day, B was leaving the local grocery store when they also spotted a lost wallet next to their car.</p><p> Upon picking up the wallet and looking inside, B found several hundred dollars in cash. </p>",0,NA,NA,NA,/Users/martincz/GitHub/COGS119/group_wi26_moral_character/analysis/../data/raw_data/p5a5napt8o8_1772140505300.csv
NA,3195,html-button-response,14,2.0.0,161984,p5a5napt8o8,quick,moral,wolf,20,female,NA,<p> B saw their decision as an easy one and was <i> able to decide quickly </i>. B left the wallet where they found it and drove off. </i></p>,0,byst_scenario_quick,NA,NA,/Users/martincz/GitHub/COGS119/group_wi26_moral_character/analysis/../data/raw_data/p5a5napt8o8_1772140505300.csv
NA,14339,survey-likert,15,2.0.0,176324,p5a5napt8o8,quick,moral,wolf,20,female,NA,NA,"{""b_principles_eval"":4}",NA,[0],byst_principles,/Users/martincz/GitHub/COGS119/group_wi26_moral_character/analysis/../data/raw_data/p5a5napt8o8_1772140505300.csv
NA,6021,survey-likert,16,2.0.0,182346,p5a5napt8o8,quick,moral,wolf,20,female,NA,NA,"{""b_standards_eval"":3}",NA,[0],byst_standards,/Users/martincz/GitHub/COGS119/group_wi26_moral_character/analysis/../data/raw_data/p5a5napt8o8_1772140505300.csv
NA,6262,survey-likert,17,2.0.0,188609,p5a5napt8o8,quick,moral,wolf,20,female,NA,NA,"{""b_deepness_eval"":1}",NA,[0],byst_depth,/Users/martincz/GitHub/COGS119/group_wi26_moral_character/analysis/../data/raw_data/p5a5napt8o8_1772140505300.csv
NA,10782,survey-likert,18,2.0.0,199392,p5a5napt8o8,quick,moral,wolf,20,female,NA,NA,"{""B_cert_quite_certain"":6,""B_cert_reservations_RS"":0,""B_cert_far_from_alternative"":0,""B_cert_conflicted_RS"":0}",NA,"[2,1,3,0]",byst_certainty,/Users/martincz/GitHub/COGS119/group_wi26_moral_character/analysis/../data/raw_data/p5a5napt8o8_1772140505300.csv
NA,4125,survey-likert,19,2.0.0,203518,p5a5napt8o8,quick,moral,wolf,20,female,NA,NA,"{""b_imp_upset_acted_without_thinking"":0,""b_imp_calm_contained_RS"":6}",NA,"[1,0]",byst_emotional_impulsivity,/Users/martincz/GitHub/COGS119/group_wi26_moral_character/analysis/../data/raw_data/p5a5napt8o8_1772140505300.csv
NA,2771,survey-text,20,2.0.0,206290,p5a5napt8o8,quick,moral,wolf,20,female,NA,NA,"{""participant_age"":""20""}",NA,NA,NA,/Users/martincz/GitHub/COGS119/group_wi26_moral_character/analysis/../data/raw_data/p5a5napt8o8_1772140505300.csv
NA,4097,survey-text,21,2.0.0,210388,p5a5napt8o8,quick,moral,wolf,20,female,NA,NA,"{""gender"":""female""}",NA,NA,NA,/Users/martincz/GitHub/COGS119/group_wi26_moral_character/analysis/../data/raw_data/p5a5napt8o8_1772140505300.csv
NA,30803,survey-likert,22,2.0.0,241193,p5a5napt8o8,quick,moral,wolf,20,female,NA,NA,"{""ma_character_reflective"":5,""ma_some_actions_wrong"":2,""ma_think_through"":6,""ma_outcomes_matter"":6,""ma_gut_feelings"":1}",NA,"[4,3,1,2,0]",moral_attitudes,/Users/martincz/GitHub/COGS119/group_wi26_moral_character/analysis/../data/raw_data/p5a5napt8o8_1772140505300.csv
NA,45911,survey-text,23,2.0.0,287047,p5a5napt8o8,quick,moral,wolf,20,female,NA,NA,"{""Q0"":""I think it's about morality and how we view different courses of actions as differing in morality even if the result was the same; no tech. difficulties""}",NA,NA,NA,/Users/martincz/GitHub/COGS119/group_wi26_moral_character/analysis/../data/raw_data/p5a5napt8o8_1772140505300.csv
TRUE,1823,fullscreen,0,null,2830,p5ocq7t0cya,quick,moral,rabbit,21,female,NA,NA,NA,NA,NA,NA,/Users/martincz/GitHub/COGS119/group_wi26_moral_character/analysis/../data/raw_data/p5ocq7t0cya_1772138430078.csv
NA,2775,html-keyboard-response,1,2.0.0,5607,p5ocq7t0cya,quick,moral,rabbit,21,female,NA,Welcome to the experiment. Press any key to begin.,NA,NA,NA,NA,/Users/martincz/GitHub/COGS119/group_wi26_moral_character/analysis/../data/raw_data/p5ocq7t0cya_1772138430078.csv
NA,5466,survey-text,2,2.0.0,11076,p5ocq7t0cya,quick,moral,rabbit,21,female,NA,NA,"{""participant_id"":""rabbit""}",NA,NA,NA,/Users/martincz/GitHub/COGS119/group_wi26_moral_character/analysis/../data/raw_data/p5ocq7t0cya_1772138430078.csv
NA,1567,html-keyboard-response,3,2.0.0,12644,p5ocq7t0cya,quick,moral,rabbit,21,female,NA,"
   <p>In this experiment, you will be presented with potential scenarios.</p><p>Please read through these carefully.</p>
   <p>You will answer a series of questions afterwards.</p>
   <p>Press any key to begin.</p>
",NA,NA,NA,NA,/Users/martincz/GitHub/COGS119/group_wi26_moral_character/analysis/../data/raw_data/p5ocq7t0cya_1772138430078.csv
NA,16963,html-button-response,4,2.0.0,29609,p5ocq7t0cya,quick,moral,rabbit,21,female,NA,"<p>Two people, J and N, were walking to separate cars in the parking lot of Andronico's, a local grocery store, where they each spotted a different lost wallet next to the cars.</p><p> Upon picking up the wallet and looking inside, each found several hundred dollars in cash. Each person considered whether they should return the wallet and money to the Customer Service desk at Andronico's, or pocket the money and drive away.</p>",0,NA,NA,NA,/Users/martincz/GitHub/COGS119/group_wi26_moral_character/analysis/../data/raw_data/p5ocq7t0cya_1772138430078.csv
NA,8949,html-button-response,5,2.0.0,38560,p5ocq7t0cya,quick,moral,rabbit,21,female,NA,"<p> N saw their decision as difficult and <i> was only able to decide after long and careful deliberation</i>. After several minutes of thinking in their car, <i> N decided not to steal the money </i> and instead left the wallet with customer service. </i><br> </p><p>In contrast, J saw their decision as an easy one and was <i> able to decide quickly. J too did not steal the money </i> and instead left the wallet with Customer Service.</p>",0,moral_stimulus_2,NA,NA,/Users/martincz/GitHub/COGS119/group_wi26_moral_character/analysis/../data/raw_data/p5ocq7t0cya_1772138430078.csv
NA,8248,survey-likert,6,2.0.0,46811,p5ocq7t0cya,quick,moral,rabbit,21,female,NA,NA,"{""j_manipulation_check"":4,""n_manipulation_check"":2}",NA,"[0,1]",NA,/Users/martincz/GitHub/COGS119/group_wi26_moral_character/analysis/../data/raw_data/p5ocq7t0cya_1772138430078.csv
NA,21114,survey-likert,7,2.0.0,67927,p5ocq7t0cya,quick,moral,rabbit,21,female,NA,NA,"{""n_principles_eval"":3,""j_principles_eval"":2}",NA,"[1,0]",principles,/Users/martincz/GitHub/COGS119/group_wi26_moral_character/analysis/../data/raw_data/p5ocq7t0cya_1772138430078.csv
NA,10315,survey-likert,8,2.0.0,78244,p5ocq7t0cya,quick,moral,rabbit,21,female,NA,NA,"{""n_standards_eval"":3,""j_standards_eval"":2}",NA,"[1,0]",standards,/Users/martincz/GitHub/COGS119/group_wi26_moral_character/analysis/../data/raw_data/p5ocq7t0cya_1772138430078.csv
NA,104135,survey-likert,9,2.0.0,182380,p5ocq7t0cya,quick,moral,rabbit,21,female,NA,NA,"{""j_deepness_eval"":1,""n_deepness_eval"":5}",NA,"[0,1]",depth,/Users/martincz/GitHub/COGS119/group_wi26_moral_character/analysis/../data/raw_data/p5ocq7t0cya_1772138430078.csv
NA,71197,survey-likert,10,2.0.0,253580,p5ocq7t0cya,quick,moral,rabbit,21,female,NA,NA,"{""j_cert_conflicted_RS"":2,""n_cert_conflicted_RS"":4,""j_cert_reservations_RS"":5,""n_cert_reservations_RS"":1}",NA,"[0,1,2,3]",certainty,/Users/martincz/GitHub/COGS119/group_wi26_moral_character/analysis/../data/raw_data/p5ocq7t0cya_1772138430078.csv
NA,102354,survey-likert,11,2.0.0,355936,p5ocq7t0cya,quick,moral,rabbit,21,female,NA,NA,"{""j_cert_quite_certain"":1,""n_cert_quite_certain"":4,""j_cert_far_from_alternative"":3,""n_cert_far_from_alternative"":3}",NA,"[0,1,2,3]",certainty,/Users/martincz/GitHub/COGS119/group_wi26_moral_character/analysis/../data/raw_data/p5ocq7t0cya_1772138430078.csv
NA,129696,survey-likert,12,2.0.0,485634,p5ocq7t0cya,quick,moral,rabbit,21,female,NA,NA,"{""j_imp_calm_contained_RS"":3,""n_imp_calm_contained_RS"":3,""j_imp_upset_acted_without_thinking"":4,""n_imp_upset_acted_without_thinking"":2}",NA,"[0,1,2,3]",emotional_impulsivity,/Users/martincz/GitHub/COGS119/group_wi26_moral_character/analysis/../data/raw_data/p5ocq7t0cya_1772138430078.csv
NA,7051,html-button-response,13,2.0.0,492687,p5ocq7t0cya,quick,moral,rabbit,21,female,NA,"<p> The next day, B was leaving the local grocery store when they also spotted a lost wallet next to their car.</p><p> Upon picking up the wallet and looking inside, B found several hundred dollars in cash. </p>",0,NA,NA,NA,/Users/martincz/GitHub/COGS119/group_wi26_moral_character/analysis/../data/raw_data/p5ocq7t0cya_1772138430078.csv
NA,5846,html-button-response,14,2.0.0,498534,p5ocq7t0cya,quick,moral,rabbit,21,female,NA,<p> B saw their decision as an easy one and was <i> able to decide quickly </i>. B left the wallet where they found it and drove off. </i></p>,0,byst_scenario_quick,NA,NA,/Users/martincz/GitHub/COGS119/group_wi26_moral_character/analysis/../data/raw_data/p5ocq7t0cya_1772138430078.csv
NA,11183,survey-likert,15,2.0.0,509718,p5ocq7t0cya,quick,moral,rabbit,21,female,NA,NA,"{""b_principles_eval"":4}",NA,[0],byst_principles,/Users/martincz/GitHub/COGS119/group_wi26_moral_character/analysis/../data/raw_data/p5ocq7t0cya_1772138430078.csv
NA,14949,survey-likert,16,2.0.0,524668,p5ocq7t0cya,quick,moral,rabbit,21,female,NA,NA,"{""b_standards_eval"":5}",NA,[0],byst_standards,/Users/martincz/GitHub/COGS119/group_wi26_moral_character/analysis/../data/raw_data/p5ocq7t0cya_1772138430078.csv
NA,9149,survey-likert,17,2.0.0,533818,p5ocq7t0cya,quick,moral,rabbit,21,female,NA,NA,"{""b_deepness_eval"":4}",NA,[0],byst_depth,/Users/martincz/GitHub/COGS119/group_wi26_moral_character/analysis/../data/raw_data/p5ocq7t0cya_1772138430078.csv
NA,122618,survey-likert,18,2.0.0,656438,p5ocq7t0cya,quick,moral,rabbit,21,female,NA,NA,"{""B_cert_far_from_alternative"":3,""B_cert_quite_certain"":4,""B_cert_conflicted_RS"":4,""B_cert_reservations_RS"":2}",NA,"[3,2,0,1]",byst_certainty,/Users/martincz/GitHub/COGS119/group_wi26_moral_character/analysis/../data/raw_data/p5ocq7t0cya_1772138430078.csv
NA,7097,survey-likert,19,2.0.0,663538,p5ocq7t0cya,quick,moral,rabbit,21,female,NA,NA,"{""b_imp_calm_contained_RS"":4,""b_imp_upset_acted_without_thinking"":1}",NA,"[0,1]",byst_emotional_impulsivity,/Users/martincz/GitHub/COGS119/group_wi26_moral_character/analysis/../data/raw_data/p5ocq7t0cya_1772138430078.csv
NA,3715,survey-text,20,2.0.0,667255,p5ocq7t0cya,quick,moral,rabbit,21,female,NA,NA,"{""participant_age"":""21""}",NA,NA,NA,/Users/martincz/GitHub/COGS119/group_wi26_moral_character/analysis/../data/raw_data/p5ocq7t0cya_1772138430078.csv
NA,3414,survey-text,21,2.0.0,670670,p5ocq7t0cya,quick,moral,rabbit,21,female,NA,NA,"{""gender"":""female""}",NA,NA,NA,/Users/martincz/GitHub/COGS119/group_wi26_moral_character/analysis/../data/raw_data/p5ocq7t0cya_1772138430078.csv
NA,35349,survey-likert,22,2.0.0,706022,p5ocq7t0cya,quick,moral,rabbit,21,female,NA,NA,"{""ma_some_actions_wrong"":4,""ma_character_reflective"":2,""ma_outcomes_matter"":1,""ma_think_through"":4,""ma_gut_feelings"":4}",NA,"[3,4,2,1,0]",moral_attitudes,/Users/martincz/GitHub/COGS119/group_wi26_moral_character/analysis/../data/raw_data/p5ocq7t0cya_1772138430078.csv
NA,27398,survey-text,23,2.0.0,733422,p5ocq7t0cya,quick,moral,rabbit,21,female,NA,NA,"{""Q0"":""morality and choices people make ""}",NA,NA,NA,/Users/martincz/GitHub/COGS119/group_wi26_moral_character/analysis/../data/raw_data/p5ocq7t0cya_1772138430078.csv
TRUE,4353,fullscreen,0,null,5360,p5yvkjgf6lq,quick,moral,A18534325,21,female,NA,NA,NA,NA,NA,NA,/Users/martincz/GitHub/COGS119/group_wi26_moral_character/analysis/../data/raw_data/p5yvkjgf6lq_1772141991968.csv
NA,1606,html-keyboard-response,1,2.0.0,6967,p5yvkjgf6lq,quick,moral,A18534325,21,female,NA,Welcome to the experiment. Press any key to begin.,NA,NA,NA,NA,/Users/martincz/GitHub/COGS119/group_wi26_moral_character/analysis/../data/raw_data/p5yvkjgf6lq_1772141991968.csv
NA,12438,survey-text,2,2.0.0,19409,p5yvkjgf6lq,quick,moral,A18534325,21,female,NA,NA,"{""participant_id"":""A18534325""}",NA,NA,NA,/Users/martincz/GitHub/COGS119/group_wi26_moral_character/analysis/../data/raw_data/p5yvkjgf6lq_1772141991968.csv
NA,3992,html-keyboard-response,3,2.0.0,23402,p5yvkjgf6lq,quick,moral,A18534325,21,female,NA,"
   <p>In this experiment, you will be presented with potential scenarios.</p><p>Please read through these carefully.</p>
   <p>You will answer a series of questions afterwards.</p>
   <p>Press any key to begin.</p>
",NA,NA,NA,NA,/Users/martincz/GitHub/COGS119/group_wi26_moral_character/analysis/../data/raw_data/p5yvkjgf6lq_1772141991968.csv
NA,14905,html-button-response,4,2.0.0,38309,p5yvkjgf6lq,quick,moral,A18534325,21,female,NA,"<p>Two people, J and N, were walking to separate cars in the parking lot of Andronico's, a local grocery store, where they each spotted a different lost wallet next to the cars.</p><p> Upon picking up the wallet and looking inside, each found several hundred dollars in cash. Each person considered whether they should return the wallet and money to the Customer Service desk at Andronico's, or pocket the money and drive away.</p>",0,NA,NA,NA,/Users/martincz/GitHub/COGS119/group_wi26_moral_character/analysis/../data/raw_data/p5yvkjgf6lq_1772141991968.csv
NA,24707,html-button-response,5,2.0.0,63018,p5yvkjgf6lq,quick,moral,A18534325,21,female,NA,"<p> J saw their decision as an easy one and was <i> able to decide quickly. J did not steal the money </i> and instead left the wallet with Customer Service.</p><p> In contrast, N saw their decision as difficult and <i> was only able to decide after long and careful deliberation</i>. After several minutes of thinking in their car, <i> N too decided not to steal the money </i> and instead left the wallet with customer service. </i><br> </p>",0,moral_stimulus_1,NA,NA,/Users/martincz/GitHub/COGS119/group_wi26_moral_character/analysis/../data/raw_data/p5yvkjgf6lq_1772141991968.csv
NA,8546,survey-likert,6,2.0.0,71566,p5yvkjgf6lq,quick,moral,A18534325,21,female,NA,NA,"{""j_manipulation_check"":6,""n_manipulation_check"":0}",NA,"[0,1]",NA,/Users/martincz/GitHub/COGS119/group_wi26_moral_character/analysis/../data/raw_data/p5yvkjgf6lq_1772141991968.csv
NA,70189,survey-likert,7,2.0.0,141757,p5yvkjgf6lq,quick,moral,A18534325,21,female,NA,NA,"{""j_standards_eval"":5,""n_standards_eval"":3}",NA,"[0,1]",standards,/Users/martincz/GitHub/COGS119/group_wi26_moral_character/analysis/../data/raw_data/p5yvkjgf6lq_1772141991968.csv
NA,10979,survey-likert,8,2.0.0,152739,p5yvkjgf6lq,quick,moral,A18534325,21,female,NA,NA,"{""j_principles_eval"":5,""n_principles_eval"":2}",NA,"[0,1]",principles,/Users/martincz/GitHub/COGS119/group_wi26_moral_character/analysis/../data/raw_data/p5yvkjgf6lq_1772141991968.csv
NA,42107,survey-likert,9,2.0.0,194848,p5yvkjgf6lq,quick,moral,A18534325,21,female,NA,NA,"{""n_deepness_eval"":5,""j_deepness_eval"":0}",NA,"[1,0]",depth,/Users/martincz/GitHub/COGS119/group_wi26_moral_character/analysis/../data/raw_data/p5yvkjgf6lq_1772141991968.csv
NA,72335,survey-likert,10,2.0.0,267185,p5yvkjgf6lq,quick,moral,A18534325,21,female,NA,NA,"{""j_cert_conflicted_RS"":1,""n_cert_conflicted_RS"":6,""j_cert_reservations_RS"":4,""n_cert_reservations_RS"":4}",NA,"[0,1,2,3]",certainty,/Users/martincz/GitHub/COGS119/group_wi26_moral_character/analysis/../data/raw_data/p5yvkjgf6lq_1772141991968.csv
NA,55813,survey-likert,11,2.0.0,323001,p5yvkjgf6lq,quick,moral,A18534325,21,female,NA,NA,"{""j_cert_quite_certain"":5,""n_cert_quite_certain"":6,""j_cert_far_from_alternative"":1,""n_cert_far_from_alternative"":4}",NA,"[0,1,2,3]",certainty,/Users/martincz/GitHub/COGS119/group_wi26_moral_character/analysis/../data/raw_data/p5yvkjgf6lq_1772141991968.csv
NA,20306,survey-likert,12,2.0.0,343309,p5yvkjgf6lq,quick,moral,A18534325,21,female,NA,NA,"{""j_imp_calm_contained_RS"":6,""n_imp_calm_contained_RS"":6,""j_imp_upset_acted_without_thinking"":0,""n_imp_upset_acted_without_thinking"":0}",NA,"[0,1,2,3]",emotional_impulsivity,/Users/martincz/GitHub/COGS119/group_wi26_moral_character/analysis/../data/raw_data/p5yvkjgf6lq_1772141991968.csv
NA,16303,html-button-response,13,2.0.0,359613,p5yvkjgf6lq,quick,moral,A18534325,21,female,NA,"<p> The next day, B was leaving the local grocery store when they also spotted a lost wallet next to their car.</p><p> Upon picking up the wallet and looking inside, B found several hundred dollars in cash. </p>",0,NA,NA,NA,/Users/martincz/GitHub/COGS119/group_wi26_moral_character/analysis/../data/raw_data/p5yvkjgf6lq_1772141991968.csv
NA,4299,html-button-response,14,2.0.0,363913,p5yvkjgf6lq,quick,moral,A18534325,21,female,NA,<p> B saw their decision as an easy one and was <i> able to decide quickly </i>. B left the wallet where they found it and drove off. </i></p>,0,byst_scenario_quick,NA,NA,/Users/martincz/GitHub/COGS119/group_wi26_moral_character/analysis/../data/raw_data/p5yvkjgf6lq_1772141991968.csv
NA,32677,survey-likert,15,2.0.0,396591,p5yvkjgf6lq,quick,moral,A18534325,21,female,NA,NA,"{""b_standards_eval"":4}",NA,[0],byst_standards,/Users/martincz/GitHub/COGS119/group_wi26_moral_character/analysis/../data/raw_data/p5yvkjgf6lq_1772141991968.csv
NA,11557,survey-likert,16,2.0.0,408150,p5yvkjgf6lq,quick,moral,A18534325,21,female,NA,NA,"{""b_principles_eval"":3}",NA,[0],byst_principles,/Users/martincz/GitHub/COGS119/group_wi26_moral_character/analysis/../data/raw_data/p5yvkjgf6lq_1772141991968.csv
NA,31011,survey-likert,17,2.0.0,439163,p5yvkjgf6lq,quick,moral,A18534325,21,female,NA,NA,"{""b_deepness_eval"":5}",NA,[0],byst_depth,/Users/martincz/GitHub/COGS119/group_wi26_moral_character/analysis/../data/raw_data/p5yvkjgf6lq_1772141991968.csv
NA,12006,survey-likert,18,2.0.0,451171,p5yvkjgf6lq,quick,moral,A18534325,21,female,NA,NA,"{""b_imp_calm_contained_RS"":3,""b_imp_upset_acted_without_thinking"":1}",NA,"[0,1]",byst_emotional_impulsivity,/Users/martincz/GitHub/COGS119/group_wi26_moral_character/analysis/../data/raw_data/p5yvkjgf6lq_1772141991968.csv
NA,83669,survey-likert,19,2.0.0,534842,p5yvkjgf6lq,quick,moral,A18534325,21,female,NA,NA,"{""B_cert_conflicted_RS"":1,""B_cert_reservations_RS"":1,""B_cert_quite_certain"":4,""B_cert_far_from_alternative"":1}",NA,"[0,1,2,3]",byst_certainty,/Users/martincz/GitHub/COGS119/group_wi26_moral_character/analysis/../data/raw_data/p5yvkjgf6lq_1772141991968.csv
NA,3287,survey-text,20,2.0.0,538133,p5yvkjgf6lq,quick,moral,A18534325,21,female,NA,NA,"{""participant_age"":""21""}",NA,NA,NA,/Users/martincz/GitHub/COGS119/group_wi26_moral_character/analysis/../data/raw_data/p5yvkjgf6lq_1772141991968.csv
NA,6294,survey-text,21,2.0.0,544433,p5yvkjgf6lq,quick,moral,A18534325,21,female,NA,NA,"{""gender"":""female""}",NA,NA,NA,/Users/martincz/GitHub/COGS119/group_wi26_moral_character/analysis/../data/raw_data/p5yvkjgf6lq_1772141991968.csv
NA,22126,survey-likert,22,2.0.0,566562,p5yvkjgf6lq,quick,moral,A18534325,21,female,NA,NA,"{""ma_think_through"":6,""ma_some_actions_wrong"":4,""ma_gut_feelings"":5,""ma_character_reflective"":4,""ma_outcomes_matter"":5}",NA,"[1,3,0,4,2]",moral_attitudes,/Users/martincz/GitHub/COGS119/group_wi26_moral_character/analysis/../data/raw_data/p5yvkjgf6lq_1772141991968.csv
NA,29467,survey-text,23,2.0.0,596032,p5yvkjgf6lq,quick,moral,A18534325,21,female,NA,NA,"{""Q0"":""Moral judgment on character depending on decision time""}",NA,NA,NA,/Users/martincz/GitHub/COGS119/group_wi26_moral_character/analysis/../data/raw_data/p5yvkjgf6lq_1772141991968.csv
TRUE,2980,fullscreen,0,null,3986,p6sw3wsogg9,quick,moral,swan,22,female,NA,NA,NA,NA,NA,NA,/Users/martincz/GitHub/COGS119/group_wi26_moral_character/analysis/../data/raw_data/p6sw3wsogg9_1772390285673.csv
NA,1151,html-keyboard-response,1,2.0.0,5139,p6sw3wsogg9,quick,moral,swan,22,female,NA,Welcome to the experiment. Press any key to begin.,NA,NA,NA,NA,/Users/martincz/GitHub/COGS119/group_wi26_moral_character/analysis/../data/raw_data/p6sw3wsogg9_1772390285673.csv
NA,2161,survey-text,2,2.0.0,7305,p6sw3wsogg9,quick,moral,swan,22,female,NA,NA,"{""participant_id"":""swan""}",NA,NA,NA,/Users/martincz/GitHub/COGS119/group_wi26_moral_character/analysis/../data/raw_data/p6sw3wsogg9_1772390285673.csv
NA,3417,html-keyboard-response,3,2.0.0,10722,p6sw3wsogg9,quick,moral,swan,22,female,NA,"
   <p>In this experiment, you will be presented with potential scenarios.</p><p>Please read through these carefully.</p>
   <p>You will answer a series of questions afterwards.</p>
   <p>Press any key to begin.</p>
",NA,NA,NA,NA,/Users/martincz/GitHub/COGS119/group_wi26_moral_character/analysis/../data/raw_data/p6sw3wsogg9_1772390285673.csv
NA,17475,html-button-response,4,2.0.0,28199,p6sw3wsogg9,quick,moral,swan,22,female,NA,"<p>Two people, J and N, were walking to separate cars in the parking lot of Andronico's, a local grocery store, where they each spotted a different lost wallet next to the cars.</p><p> Upon picking up the wallet and looking inside, each found several hundred dollars in cash. Each person considered whether they should return the wallet and money to the Customer Service desk at Andronico's, or pocket the money and drive away.</p>",0,NA,NA,NA,/Users/martincz/GitHub/COGS119/group_wi26_moral_character/analysis/../data/raw_data/p6sw3wsogg9_1772390285673.csv
NA,8279,html-button-response,5,2.0.0,36479,p6sw3wsogg9,quick,moral,swan,22,female,NA,"<p> N saw their decision as difficult and <i> was only able to decide after long and careful deliberation</i>. After several minutes of thinking in their car, <i> N decided not to steal the money </i> and instead left the wallet with customer service. </i><br> </p><p>In contrast, J saw their decision as an easy one and was <i> able to decide quickly. J too did not steal the money </i> and instead left the wallet with Customer Service.</p>",0,moral_stimulus_2,NA,NA,/Users/martincz/GitHub/COGS119/group_wi26_moral_character/analysis/../data/raw_data/p6sw3wsogg9_1772390285673.csv
NA,5926,survey-likert,6,2.0.0,42408,p6sw3wsogg9,quick,moral,swan,22,female,NA,NA,"{""n_manipulation_check"":0,""j_manipulation_check"":6}",NA,"[1,0]",NA,/Users/martincz/GitHub/COGS119/group_wi26_moral_character/analysis/../data/raw_data/p6sw3wsogg9_1772390285673.csv
NA,7595,survey-likert,7,2.0.0,50004,p6sw3wsogg9,quick,moral,swan,22,female,NA,NA,"{""j_principles_eval"":4,""n_principles_eval"":6}",NA,"[0,1]",principles,/Users/martincz/GitHub/COGS119/group_wi26_moral_character/analysis/../data/raw_data/p6sw3wsogg9_1772390285673.csv
NA,6486,survey-likert,8,2.0.0,56493,p6sw3wsogg9,quick,moral,swan,22,female,NA,NA,"{""j_standards_eval"":4,""n_standards_eval"":6}",NA,"[0,1]",standards,/Users/martincz/GitHub/COGS119/group_wi26_moral_character/analysis/../data/raw_data/p6sw3wsogg9_1772390285673.csv
NA,14142,survey-likert,9,2.0.0,70638,p6sw3wsogg9,quick,moral,swan,22,female,NA,NA,"{""n_deepness_eval"":1,""j_deepness_eval"":6}",NA,"[1,0]",depth,/Users/martincz/GitHub/COGS119/group_wi26_moral_character/analysis/../data/raw_data/p6sw3wsogg9_1772390285673.csv
NA,11506,survey-likert,10,2.0.0,82147,p6sw3wsogg9,quick,moral,swan,22,female,NA,NA,"{""j_cert_conflicted_RS"":0,""n_cert_conflicted_RS"":5,""j_cert_reservations_RS"":0,""n_cert_reservations_RS"":4}",NA,"[0,1,2,3]",certainty,/Users/martincz/GitHub/COGS119/group_wi26_moral_character/analysis/../data/raw_data/p6sw3wsogg9_1772390285673.csv
NA,21013,survey-likert,11,2.0.0,103163,p6sw3wsogg9,quick,moral,swan,22,female,NA,NA,"{""j_cert_quite_certain"":6,""n_cert_quite_certain"":2,""j_cert_far_from_alternative"":6,""n_cert_far_from_alternative"":4}",NA,"[0,1,2,3]",certainty,/Users/martincz/GitHub/COGS119/group_wi26_moral_character/analysis/../data/raw_data/p6sw3wsogg9_1772390285673.csv
NA,10026,survey-likert,12,2.0.0,113191,p6sw3wsogg9,quick,moral,swan,22,female,NA,NA,"{""j_imp_calm_contained_RS"":6,""n_imp_calm_contained_RS"":6,""j_imp_upset_acted_without_thinking"":0,""n_imp_upset_acted_without_thinking"":0}",NA,"[0,1,2,3]",emotional_impulsivity,/Users/martincz/GitHub/COGS119/group_wi26_moral_character/analysis/../data/raw_data/p6sw3wsogg9_1772390285673.csv
NA,3807,html-button-response,13,2.0.0,117000,p6sw3wsogg9,quick,moral,swan,22,female,NA,"<p> The next day, B was leaving the local grocery store when they also spotted a lost wallet next to their car.</p><p> Upon picking up the wallet and looking inside, B found several hundred dollars in cash. </p>",0,NA,NA,NA,/Users/martincz/GitHub/COGS119/group_wi26_moral_character/analysis/../data/raw_data/p6sw3wsogg9_1772390285673.csv
NA,3445,html-button-response,14,2.0.0,120445,p6sw3wsogg9,quick,moral,swan,22,female,NA,<p> B saw their decision as an easy one and was <i> able to decide quickly </i>. B left the wallet where they found it and drove off. </i></p>,0,byst_scenario_quick,NA,NA,/Users/martincz/GitHub/COGS119/group_wi26_moral_character/analysis/../data/raw_data/p6sw3wsogg9_1772390285673.csv
NA,5040,survey-likert,15,2.0.0,125487,p6sw3wsogg9,quick,moral,swan,22,female,NA,NA,"{""b_principles_eval"":2}",NA,[0],byst_principles,/Users/martincz/GitHub/COGS119/group_wi26_moral_character/analysis/../data/raw_data/p6sw3wsogg9_1772390285673.csv
NA,4832,survey-likert,16,2.0.0,130321,p6sw3wsogg9,quick,moral,swan,22,female,NA,NA,"{""b_standards_eval"":2}",NA,[0],byst_standards,/Users/martincz/GitHub/COGS119/group_wi26_moral_character/analysis/../data/raw_data/p6sw3wsogg9_1772390285673.csv
NA,9045,survey-likert,17,2.0.0,139367,p6sw3wsogg9,quick,moral,swan,22,female,NA,NA,"{""b_deepness_eval"":0}",NA,[0],byst_depth,/Users/martincz/GitHub/COGS119/group_wi26_moral_character/analysis/../data/raw_data/p6sw3wsogg9_1772390285673.csv
NA,5705,survey-likert,18,2.0.0,145075,p6sw3wsogg9,quick,moral,swan,22,female,NA,NA,"{""b_imp_upset_acted_without_thinking"":0,""b_imp_calm_contained_RS"":6}",NA,"[1,0]",byst_emotional_impulsivity,/Users/martincz/GitHub/COGS119/group_wi26_moral_character/analysis/../data/raw_data/p6sw3wsogg9_1772390285673.csv
NA,12757,survey-likert,19,2.0.0,157834,p6sw3wsogg9,quick,moral,swan,22,female,NA,NA,"{""B_cert_reservations_RS"":1,""B_cert_far_from_alternative"":4,""B_cert_conflicted_RS"":1,""B_cert_quite_certain"":6}",NA,"[1,3,0,2]",byst_certainty,/Users/martincz/GitHub/COGS119/group_wi26_moral_character/analysis/../data/raw_data/p6sw3wsogg9_1772390285673.csv
NA,2257,survey-text,20,2.0.0,160092,p6sw3wsogg9,quick,moral,swan,22,female,NA,NA,"{""participant_age"":""22""}",NA,NA,NA,/Users/martincz/GitHub/COGS119/group_wi26_moral_character/analysis/../data/raw_data/p6sw3wsogg9_1772390285673.csv
NA,2898,survey-text,21,2.0.0,162993,p6sw3wsogg9,quick,moral,swan,22,female,NA,NA,"{""gender"":""female""}",NA,NA,NA,/Users/martincz/GitHub/COGS119/group_wi26_moral_character/analysis/../data/raw_data/p6sw3wsogg9_1772390285673.csv
NA,21384,survey-likert,22,2.0.0,184380,p6sw3wsogg9,quick,moral,swan,22,female,NA,NA,"{""ma_gut_feelings"":5,""ma_some_actions_wrong"":6,""ma_think_through"":6,""ma_outcomes_matter"":4,""ma_character_reflective"":6}",NA,"[0,3,1,2,4]",moral_attitudes,/Users/martincz/GitHub/COGS119/group_wi26_moral_character/analysis/../data/raw_data/p6sw3wsogg9_1772390285673.csv
NA,16377,survey-text,23,2.0.0,200759,p6sw3wsogg9,quick,moral,swan,22,female,NA,NA,"{""Q0"":""To see if taking more time to think about a moral decision was perceived as bad""}",NA,NA,NA,/Users/martincz/GitHub/COGS119/group_wi26_moral_character/analysis/../data/raw_data/p6sw3wsogg9_1772390285673.csv
TRUE,38258,fullscreen,0,null,39264,p758r54y2g2,quick,immoral,raccoon,21,Female,NA,NA,NA,NA,NA,NA,/Users/martincz/GitHub/COGS119/group_wi26_moral_character/analysis/../data/raw_data/p758r54y2g2_1772138969034.csv
NA,1151,html-keyboard-response,1,2.0.0,40417,p758r54y2g2,quick,immoral,raccoon,21,Female,NA,Welcome to the experiment. Press any key to begin.,NA,NA,NA,NA,/Users/martincz/GitHub/COGS119/group_wi26_moral_character/analysis/../data/raw_data/p758r54y2g2_1772138969034.csv
NA,2641,survey-text,2,2.0.0,43063,p758r54y2g2,quick,immoral,raccoon,21,Female,NA,NA,"{""participant_id"":""raccoon""}",NA,NA,NA,/Users/martincz/GitHub/COGS119/group_wi26_moral_character/analysis/../data/raw_data/p758r54y2g2_1772138969034.csv
NA,3614,html-keyboard-response,3,2.0.0,46678,p758r54y2g2,quick,immoral,raccoon,21,Female,NA,"
   <p>In this experiment, you will be presented with potential scenarios.</p><p>Please read through these carefully.</p>
   <p>You will answer a series of questions afterwards.</p>
   <p>Press any key to begin.</p>
",j,NA,NA,NA,/Users/martincz/GitHub/COGS119/group_wi26_moral_character/analysis/../data/raw_data/p758r54y2g2_1772138969034.csv
NA,13247,html-button-response,4,2.0.0,59927,p758r54y2g2,quick,immoral,raccoon,21,Female,NA,"<p>Two people, J and N, were walking to separate cars in the parking lot of Andronico's, a local grocery store, where they each spotted a different lost wallet next to the cars.</p><p> Upon picking up the wallet and looking inside, each found several hundred dollars in cash. Each person considered whether they should return the wallet and money to the Customer Service desk at Andronico's, or pocket the money and drive away.</p>",0,NA,NA,NA,/Users/martincz/GitHub/COGS119/group_wi26_moral_character/analysis/../data/raw_data/p758r54y2g2_1772138969034.csv
NA,8981,html-button-response,5,2.0.0,68910,p758r54y2g2,quick,immoral,raccoon,21,Female,NA,"<p> N saw their decision as difficult and <i> was only able to decide after long and careful deliberation</i>. After several minutes of thinking in their car, <i> they decided to pocket the money and drive off.</i></p><p> In contrast, J saw their decision as an easy one and was <i> able to decide quickly. J too pocketed the money and drove off. </i></p>",0,immoral_stimulus_2,NA,NA,/Users/martincz/GitHub/COGS119/group_wi26_moral_character/analysis/../data/raw_data/p758r54y2g2_1772138969034.csv
NA,5614,survey-likert,6,2.0.0,74527,p758r54y2g2,quick,immoral,raccoon,21,Female,NA,NA,"{""n_manipulation_check"":0,""j_manipulation_check"":6}",NA,"[1,0]",NA,/Users/martincz/GitHub/COGS119/group_wi26_moral_character/analysis/../data/raw_data/p758r54y2g2_1772138969034.csv
NA,20312,survey-likert,7,2.0.0,94843,p758r54y2g2,quick,immoral,raccoon,21,Female,NA,NA,"{""j_principles_eval"":3,""n_principles_eval"":3}",NA,"[0,1]",principles,/Users/martincz/GitHub/COGS119/group_wi26_moral_character/analysis/../data/raw_data/p758r54y2g2_1772138969034.csv
NA,10347,survey-likert,8,2.0.0,105193,p758r54y2g2,quick,immoral,raccoon,21,Female,NA,NA,"{""n_standards_eval"":3,""j_standards_eval"":3}",NA,"[1,0]",standards,/Users/martincz/GitHub/COGS119/group_wi26_moral_character/analysis/../data/raw_data/p758r54y2g2_1772138969034.csv
NA,5631,survey-likert,9,2.0.0,110826,p758r54y2g2,quick,immoral,raccoon,21,Female,NA,NA,"{""n_deepness_eval"":3,""j_deepness_eval"":3}",NA,"[1,0]",depth,/Users/martincz/GitHub/COGS119/group_wi26_moral_character/analysis/../data/raw_data/p758r54y2g2_1772138969034.csv
NA,12714,survey-likert,10,2.0.0,123543,p758r54y2g2,quick,immoral,raccoon,21,Female,NA,NA,"{""j_cert_conflicted_RS"":0,""n_cert_conflicted_RS"":6,""j_cert_reservations_RS"":0,""n_cert_reservations_RS"":6}",NA,"[0,1,2,3]",certainty,/Users/martincz/GitHub/COGS119/group_wi26_moral_character/analysis/../data/raw_data/p758r54y2g2_1772138969034.csv
NA,17714,survey-likert,11,2.0.0,141260,p758r54y2g2,quick,immoral,raccoon,21,Female,NA,NA,"{""j_cert_quite_certain"":6,""n_cert_quite_certain"":0,""j_cert_far_from_alternative"":0,""n_cert_far_from_alternative"":2}",NA,"[0,1,2,3]",certainty,/Users/martincz/GitHub/COGS119/group_wi26_moral_character/analysis/../data/raw_data/p758r54y2g2_1772138969034.csv
NA,17863,survey-likert,12,2.0.0,159125,p758r54y2g2,quick,immoral,raccoon,21,Female,NA,NA,"{""j_imp_calm_contained_RS"":6,""n_imp_calm_contained_RS"":3,""j_imp_upset_acted_without_thinking"":0,""n_imp_upset_acted_without_thinking"":1}",NA,"[0,1,2,3]",emotional_impulsivity,/Users/martincz/GitHub/COGS119/group_wi26_moral_character/analysis/../data/raw_data/p758r54y2g2_1772138969034.csv
NA,4497,html-button-response,13,2.0.0,163624,p758r54y2g2,quick,immoral,raccoon,21,Female,NA,"<p> The next day, B was leaving the local grocery store when they also spotted a lost wallet next to their car.</p><p> Upon picking up the wallet and looking inside, B found several hundred dollars in cash. </p>",0,NA,NA,NA,/Users/martincz/GitHub/COGS119/group_wi26_moral_character/analysis/../data/raw_data/p758r54y2g2_1772138969034.csv
NA,3582,html-button-response,14,2.0.0,167208,p758r54y2g2,quick,immoral,raccoon,21,Female,NA,<p> B saw their decision as an easy one and was <i> able to decide quickly </i>. B left the wallet where they found it and drove off. </i></p>,0,byst_scenario_quick,NA,NA,/Users/martincz/GitHub/COGS119/group_wi26_moral_character/analysis/../data/raw_data/p758r54y2g2_1772138969034.csv
NA,4766,survey-likert,15,2.0.0,171975,p758r54y2g2,quick,immoral,raccoon,21,Female,NA,NA,"{""b_principles_eval"":6}",NA,[0],byst_principles,/Users/martincz/GitHub/COGS119/group_wi26_moral_character/analysis/../data/raw_data/p758r54y2g2_1772138969034.csv
NA,2814,survey-likert,16,2.0.0,174791,p758r54y2g2,quick,immoral,raccoon,21,Female,NA,NA,"{""b_standards_eval"":6}",NA,[0],byst_standards,/Users/martincz/GitHub/COGS119/group_wi26_moral_character/analysis/../data/raw_data/p758r54y2g2_1772138969034.csv
NA,2298,survey-likert,17,2.0.0,177092,p758r54y2g2,quick,immoral,raccoon,21,Female,NA,NA,"{""b_deepness_eval"":6}",NA,[0],byst_depth,/Users/martincz/GitHub/COGS119/group_wi26_moral_character/analysis/../data/raw_data/p758r54y2g2_1772138969034.csv
NA,6480,survey-likert,18,2.0.0,183574,p758r54y2g2,quick,immoral,raccoon,21,Female,NA,NA,"{""b_imp_calm_contained_RS"":6,""b_imp_upset_acted_without_thinking"":0}",NA,"[0,1]",byst_emotional_impulsivity,/Users/martincz/GitHub/COGS119/group_wi26_moral_character/analysis/../data/raw_data/p758r54y2g2_1772138969034.csv
NA,7514,survey-likert,19,2.0.0,191091,p758r54y2g2,quick,immoral,raccoon,21,Female,NA,NA,"{""B_cert_reservations_RS"":0,""B_cert_far_from_alternative"":0,""B_cert_quite_certain"":6,""B_cert_conflicted_RS"":0}",NA,"[1,3,2,0]",byst_certainty,/Users/martincz/GitHub/COGS119/group_wi26_moral_character/analysis/../data/raw_data/p758r54y2g2_1772138969034.csv
NA,2023,survey-text,20,2.0.0,193118,p758r54y2g2,quick,immoral,raccoon,21,Female,NA,NA,"{""participant_age"":""21""}",NA,NA,NA,/Users/martincz/GitHub/COGS119/group_wi26_moral_character/analysis/../data/raw_data/p758r54y2g2_1772138969034.csv
NA,1911,survey-text,21,2.0.0,195032,p758r54y2g2,quick,immoral,raccoon,21,Female,NA,NA,"{""gender"":""Female""}",NA,NA,NA,/Users/martincz/GitHub/COGS119/group_wi26_moral_character/analysis/../data/raw_data/p758r54y2g2_1772138969034.csv
NA,28992,survey-likert,22,2.0.0,224025,p758r54y2g2,quick,immoral,raccoon,21,Female,NA,NA,"{""ma_character_reflective"":6,""ma_think_through"":6,""ma_outcomes_matter"":6,""ma_some_actions_wrong"":6,""ma_gut_feelings"":6}",NA,"[4,1,2,3,0]",moral_attitudes,/Users/martincz/GitHub/COGS119/group_wi26_moral_character/analysis/../data/raw_data/p758r54y2g2_1772138969034.csv
NA,5993,survey-text,23,2.0.0,230021,p758r54y2g2,quick,immoral,raccoon,21,Female,NA,NA,"{""Q0"":""Moral character""}",NA,NA,NA,/Users/martincz/GitHub/COGS119/group_wi26_moral_character/analysis/../data/raw_data/p758r54y2g2_1772138969034.csv
TRUE,1083,fullscreen,0,null,2089,p89tcaflz0u,slow,immoral,crow,21,female,NA,NA,NA,NA,NA,NA,/Users/martincz/GitHub/COGS119/group_wi26_moral_character/analysis/../data/raw_data/p89tcaflz0u_1772140083626.csv
NA,835,html-keyboard-response,1,2.0.0,2926,p89tcaflz0u,slow,immoral,crow,21,female,NA,Welcome to the experiment. Press any key to begin.,NA,NA,NA,NA,/Users/martincz/GitHub/COGS119/group_wi26_moral_character/analysis/../data/raw_data/p89tcaflz0u_1772140083626.csv
NA,1741,survey-text,2,2.0.0,4672,p89tcaflz0u,slow,immoral,crow,21,female,NA,NA,"{""participant_id"":""crow""}",NA,NA,NA,/Users/martincz/GitHub/COGS119/group_wi26_moral_character/analysis/../data/raw_data/p89tcaflz0u_1772140083626.csv
NA,2149,html-keyboard-response,3,2.0.0,6822,p89tcaflz0u,slow,immoral,crow,21,female,NA,"
   <p>In this experiment, you will be presented with potential scenarios.</p><p>Please read through these carefully.</p>
   <p>You will answer a series of questions afterwards.</p>
   <p>Press any key to begin.</p>
",NA,NA,NA,NA,/Users/martincz/GitHub/COGS119/group_wi26_moral_character/analysis/../data/raw_data/p89tcaflz0u_1772140083626.csv
NA,8396,html-button-response,4,2.0.0,15220,p89tcaflz0u,slow,immoral,crow,21,female,NA,"<p>Two people, J and N, were walking to separate cars in the parking lot of Andronico's, a local grocery store, where they each spotted a different lost wallet next to the cars.</p><p> Upon picking up the wallet and looking inside, each found several hundred dollars in cash. Each person considered whether they should return the wallet and money to the Customer Service desk at Andronico's, or pocket the money and drive away.</p>",0,NA,NA,NA,/Users/martincz/GitHub/COGS119/group_wi26_moral_character/analysis/../data/raw_data/p89tcaflz0u_1772140083626.csv
NA,6299,html-button-response,5,2.0.0,21521,p89tcaflz0u,slow,immoral,crow,21,female,NA,"<p> N saw their decision as difficult and <i> was only able to decide after long and careful deliberation</i>. After several minutes of thinking in their car, <i> they decided to pocket the money and drive off.</i></p><p> In contrast, J saw their decision as an easy one and was <i> able to decide quickly. J too pocketed the money and drove off. </i></p>",0,immoral_stimulus_2,NA,NA,/Users/martincz/GitHub/COGS119/group_wi26_moral_character/analysis/../data/raw_data/p89tcaflz0u_1772140083626.csv
NA,5696,survey-likert,6,2.0.0,27220,p89tcaflz0u,slow,immoral,crow,21,female,NA,NA,"{""n_manipulation_check"":1,""j_manipulation_check"":6}",NA,"[1,0]",NA,/Users/martincz/GitHub/COGS119/group_wi26_moral_character/analysis/../data/raw_data/p89tcaflz0u_1772140083626.csv
NA,13451,survey-likert,7,2.0.0,40673,p89tcaflz0u,slow,immoral,crow,21,female,NA,NA,"{""j_standards_eval"":1,""n_standards_eval"":4}",NA,"[0,1]",standards,/Users/martincz/GitHub/COGS119/group_wi26_moral_character/analysis/../data/raw_data/p89tcaflz0u_1772140083626.csv
NA,11078,survey-likert,8,2.0.0,51754,p89tcaflz0u,slow,immoral,crow,21,female,NA,NA,"{""j_principles_eval"":1,""n_principles_eval"":5}",NA,"[0,1]",principles,/Users/martincz/GitHub/COGS119/group_wi26_moral_character/analysis/../data/raw_data/p89tcaflz0u_1772140083626.csv
NA,21248,survey-likert,9,2.0.0,73004,p89tcaflz0u,slow,immoral,crow,21,female,NA,NA,"{""n_deepness_eval"":4,""j_deepness_eval"":2}",NA,"[1,0]",depth,/Users/martincz/GitHub/COGS119/group_wi26_moral_character/analysis/../data/raw_data/p89tcaflz0u_1772140083626.csv
NA,11664,survey-likert,10,2.0.0,84669,p89tcaflz0u,slow,immoral,crow,21,female,NA,NA,"{""j_cert_conflicted_RS"":0,""n_cert_conflicted_RS"":5,""j_cert_reservations_RS"":0,""n_cert_reservations_RS"":5}",NA,"[0,1,2,3]",certainty,/Users/martincz/GitHub/COGS119/group_wi26_moral_character/analysis/../data/raw_data/p89tcaflz0u_1772140083626.csv
NA,17298,survey-likert,11,2.0.0,101970,p89tcaflz0u,slow,immoral,crow,21,female,NA,NA,"{""j_cert_quite_certain"":6,""n_cert_quite_certain"":1,""j_cert_far_from_alternative"":0,""n_cert_far_from_alternative"":4}",NA,"[0,1,2,3]",certainty,/Users/martincz/GitHub/COGS119/group_wi26_moral_character/analysis/../data/raw_data/p89tcaflz0u_1772140083626.csv
NA,16847,survey-likert,12,2.0.0,118820,p89tcaflz0u,slow,immoral,crow,21,female,NA,NA,"{""j_imp_calm_contained_RS"":6,""n_imp_calm_contained_RS"":2,""j_imp_upset_acted_without_thinking"":0,""n_imp_upset_acted_without_thinking"":2}",NA,"[0,1,2,3]",emotional_impulsivity,/Users/martincz/GitHub/COGS119/group_wi26_moral_character/analysis/../data/raw_data/p89tcaflz0u_1772140083626.csv
NA,3665,html-button-response,13,2.0.0,122487,p89tcaflz0u,slow,immoral,crow,21,female,NA,"<p> The next day, B was leaving the local grocery store when they also spotted a lost wallet next to their car.</p><p> Upon picking up the wallet and looking inside, B found several hundred dollars in cash. </p>",0,NA,NA,NA,/Users/martincz/GitHub/COGS119/group_wi26_moral_character/analysis/../data/raw_data/p89tcaflz0u_1772140083626.csv
NA,4449,html-button-response,14,2.0.0,126938,p89tcaflz0u,slow,immoral,crow,21,female,NA,"<p> B saw their decision as difficult and <i> was only able to decide after long and careful deliberation</i>. After several minutes of thinking, B decided to leave the wallet where they found it and drove off. </p>",0,byst_scenario_slow,NA,NA,/Users/martincz/GitHub/COGS119/group_wi26_moral_character/analysis/../data/raw_data/p89tcaflz0u_1772140083626.csv
NA,4046,survey-likert,15,2.0.0,130987,p89tcaflz0u,slow,immoral,crow,21,female,NA,NA,"{""b_standards_eval"":2}",NA,[0],byst_standards,/Users/martincz/GitHub/COGS119/group_wi26_moral_character/analysis/../data/raw_data/p89tcaflz0u_1772140083626.csv
NA,4799,survey-likert,16,2.0.0,135787,p89tcaflz0u,slow,immoral,crow,21,female,NA,NA,"{""b_principles_eval"":2}",NA,[0],byst_principles,/Users/martincz/GitHub/COGS119/group_wi26_moral_character/analysis/../data/raw_data/p89tcaflz0u_1772140083626.csv
NA,3398,survey-likert,17,2.0.0,139187,p89tcaflz0u,slow,immoral,crow,21,female,NA,NA,"{""b_deepness_eval"":1}",NA,[0],byst_depth,/Users/martincz/GitHub/COGS119/group_wi26_moral_character/analysis/../data/raw_data/p89tcaflz0u_1772140083626.csv
NA,8830,survey-likert,18,2.0.0,148020,p89tcaflz0u,slow,immoral,crow,21,female,NA,NA,"{""b_imp_calm_contained_RS"":4,""b_imp_upset_acted_without_thinking"":1}",NA,"[0,1]",byst_emotional_impulsivity,/Users/martincz/GitHub/COGS119/group_wi26_moral_character/analysis/../data/raw_data/p89tcaflz0u_1772140083626.csv
NA,15613,survey-likert,19,2.0.0,163635,p89tcaflz0u,slow,immoral,crow,21,female,NA,NA,"{""B_cert_reservations_RS"":5,""B_cert_far_from_alternative"":5,""B_cert_conflicted_RS"":4,""B_cert_quite_certain"":2}",NA,"[1,3,0,2]",byst_certainty,/Users/martincz/GitHub/COGS119/group_wi26_moral_character/analysis/../data/raw_data/p89tcaflz0u_1772140083626.csv
NA,1618,survey-text,20,2.0.0,165254,p89tcaflz0u,slow,immoral,crow,21,female,NA,NA,"{""participant_age"":""21""}",NA,NA,NA,/Users/martincz/GitHub/COGS119/group_wi26_moral_character/analysis/../data/raw_data/p89tcaflz0u_1772140083626.csv
NA,2397,survey-text,21,2.0.0,167654,p89tcaflz0u,slow,immoral,crow,21,female,NA,NA,"{""gender"":""female""}",NA,NA,NA,/Users/martincz/GitHub/COGS119/group_wi26_moral_character/analysis/../data/raw_data/p89tcaflz0u_1772140083626.csv
NA,30445,survey-likert,22,2.0.0,198102,p89tcaflz0u,slow,immoral,crow,21,female,NA,NA,"{""ma_think_through"":5,""ma_gut_feelings"":2,""ma_character_reflective"":4,""ma_some_actions_wrong"":2,""ma_outcomes_matter"":2}",NA,"[1,0,4,3,2]",moral_attitudes,/Users/martincz/GitHub/COGS119/group_wi26_moral_character/analysis/../data/raw_data/p89tcaflz0u_1772140083626.csv
NA,5282,survey-text,23,2.0.0,203387,p89tcaflz0u,slow,immoral,crow,21,female,NA,NA,"{""Q0"":""this is my experiment""}",NA,NA,NA,/Users/martincz/GitHub/COGS119/group_wi26_moral_character/analysis/../data/raw_data/p89tcaflz0u_1772140083626.csv
TRUE,1640,fullscreen,0,null,2643,p9cept8dst3,slow,moral,bear,20,female,NA,NA,NA,NA,NA,NA,/Users/martincz/GitHub/COGS119/group_wi26_moral_character/analysis/../data/raw_data/p9cept8dst3_1772141048307.csv
NA,1366,html-keyboard-response,1,2.0.0,4009,p9cept8dst3,slow,moral,bear,20,female,NA,Welcome to the experiment. Press any key to begin.,NA,NA,NA,NA,/Users/martincz/GitHub/COGS119/group_wi26_moral_character/analysis/../data/raw_data/p9cept8dst3_1772141048307.csv
NA,1636,survey-text,2,2.0.0,5649,p9cept8dst3,slow,moral,bear,20,female,NA,NA,"{""participant_id"":""bear""}",NA,NA,NA,/Users/martincz/GitHub/COGS119/group_wi26_moral_character/analysis/../data/raw_data/p9cept8dst3_1772141048307.csv
NA,2973,html-keyboard-response,3,2.0.0,8622,p9cept8dst3,slow,moral,bear,20,female,NA,"
   <p>In this experiment, you will be presented with potential scenarios.</p><p>Please read through these carefully.</p>
   <p>You will answer a series of questions afterwards.</p>
   <p>Press any key to begin.</p>
",NA,NA,NA,NA,/Users/martincz/GitHub/COGS119/group_wi26_moral_character/analysis/../data/raw_data/p9cept8dst3_1772141048307.csv
NA,44639,html-button-response,4,2.0.0,53260,p9cept8dst3,slow,moral,bear,20,female,NA,"<p>Two people, J and N, were walking to separate cars in the parking lot of Andronico's, a local grocery store, where they each spotted a different lost wallet next to the cars.</p><p> Upon picking up the wallet and looking inside, each found several hundred dollars in cash. Each person considered whether they should return the wallet and money to the Customer Service desk at Andronico's, or pocket the money and drive away.</p>",0,NA,NA,NA,/Users/martincz/GitHub/COGS119/group_wi26_moral_character/analysis/../data/raw_data/p9cept8dst3_1772141048307.csv
NA,14263,html-button-response,5,2.0.0,67524,p9cept8dst3,slow,moral,bear,20,female,NA,"<p> N saw their decision as difficult and <i> was only able to decide after long and careful deliberation</i>. After several minutes of thinking in their car, <i> N decided not to steal the money </i> and instead left the wallet with customer service. </i><br> </p><p>In contrast, J saw their decision as an easy one and was <i> able to decide quickly. J too did not steal the money </i> and instead left the wallet with Customer Service.</p>",0,moral_stimulus_2,NA,NA,/Users/martincz/GitHub/COGS119/group_wi26_moral_character/analysis/../data/raw_data/p9cept8dst3_1772141048307.csv
NA,10683,survey-likert,6,2.0.0,78209,p9cept8dst3,slow,moral,bear,20,female,NA,NA,"{""j_manipulation_check"":5,""n_manipulation_check"":2}",NA,"[0,1]",NA,/Users/martincz/GitHub/COGS119/group_wi26_moral_character/analysis/../data/raw_data/p9cept8dst3_1772141048307.csv
NA,14543,survey-likert,7,2.0.0,92753,p9cept8dst3,slow,moral,bear,20,female,NA,NA,"{""j_standards_eval"":4,""n_standards_eval"":4}",NA,"[0,1]",standards,/Users/martincz/GitHub/COGS119/group_wi26_moral_character/analysis/../data/raw_data/p9cept8dst3_1772141048307.csv
NA,17784,survey-likert,8,2.0.0,110538,p9cept8dst3,slow,moral,bear,20,female,NA,NA,"{""n_principles_eval"":4,""j_principles_eval"":4}",NA,"[1,0]",principles,/Users/martincz/GitHub/COGS119/group_wi26_moral_character/analysis/../data/raw_data/p9cept8dst3_1772141048307.csv
NA,6105,survey-likert,9,2.0.0,116645,p9cept8dst3,slow,moral,bear,20,female,NA,NA,"{""n_deepness_eval"":4,""j_deepness_eval"":4}",NA,"[1,0]",depth,/Users/martincz/GitHub/COGS119/group_wi26_moral_character/analysis/../data/raw_data/p9cept8dst3_1772141048307.csv
NA,24286,survey-likert,10,2.0.0,140932,p9cept8dst3,slow,moral,bear,20,female,NA,NA,"{""j_cert_conflicted_RS"":1,""n_cert_conflicted_RS"":3,""j_cert_reservations_RS"":1,""n_cert_reservations_RS"":3}",NA,"[0,1,2,3]",certainty,/Users/martincz/GitHub/COGS119/group_wi26_moral_character/analysis/../data/raw_data/p9cept8dst3_1772141048307.csv
NA,91874,survey-likert,11,2.0.0,232803,p9cept8dst3,slow,moral,bear,20,female,NA,NA,"{""j_cert_quite_certain"":5,""n_cert_quite_certain"":4,""j_cert_far_from_alternative"":0,""n_cert_far_from_alternative"":2}",NA,"[0,1,2,3]",certainty,/Users/martincz/GitHub/COGS119/group_wi26_moral_character/analysis/../data/raw_data/p9cept8dst3_1772141048307.csv
NA,18533,survey-likert,12,2.0.0,251337,p9cept8dst3,slow,moral,bear,20,female,NA,NA,"{""j_imp_calm_contained_RS"":5,""n_imp_calm_contained_RS"":4,""j_imp_upset_acted_without_thinking"":0,""n_imp_upset_acted_without_thinking"":1}",NA,"[0,1,2,3]",emotional_impulsivity,/Users/martincz/GitHub/COGS119/group_wi26_moral_character/analysis/../data/raw_data/p9cept8dst3_1772141048307.csv
